[
	{
		"success": true,
		"trial_type": "fullscreen",
		"trial_index": 0,
		"time_elapsed": 7474,
		"internal_node_id": "0.0-0.0"
	},
	{
		"rt": 6073.284999991301,
		"response_type": "mouse",
		"key_press": -1,
		"avg_frame_time": null,
		"click_x": 919,
		"click_y": 762,
		"position": [
			"(572,533)",
			"(577,523)",
			"(583,517)",
			"(588,507)",
			"(595,498)",
			"(596,491)",
			"(598,482)",
			"(601,476)",
			"(601,472)",
			"(603,466)",
			"(604,460)",
			"(606,454)",
			"(607,451)",
			"(610,448)",
			"(611,443)",
			"(611,441)",
			"(611,439)",
			"(611,438)",
			"(611,436)",
			"(611,435)",
			"(610,435)",
			"(609,435)",
			"(608,435)",
			"(607,435)",
			"(605,435)",
			"(599,438)",
			"(591,441)",
			"(580,446)",
			"(575,448)",
			"(568,450)",
			"(560,454)",
			"(554,454)",
			"(547,455)",
			"(540,455)",
			"(534,456)",
			"(530,456)",
			"(527,456)",
			"(526,456)",
			"(525,456)",
			"(524,456)",
			"(524,454)",
			"(524,453)",
			"(524,451)",
			"(524,449)",
			"(524,447)",
			"(525,446)",
			"(525,445)",
			"(526,445)",
			"(526,444)",
			"(528,443)",
			"(529,442)",
			"(530,441)",
			"(532,440)",
			"(535,439)",
			"(537,438)",
			"(541,437)",
			"(546,436)",
			"(547,436)",
			"(549,435)",
			"(553,434)",
			"(560,430)",
			"(574,427)",
			"(581,426)",
			"(598,422)",
			"(603,420)",
			"(620,418)",
			"(626,417)",
			"(651,416)",
			"(656,416)",
			"(660,416)",
			"(667,416)",
			"(670,416)",
			"(673,416)",
			"(674,416)",
			"(675,416)",
			"(677,416)",
			"(678,416)",
			"(679,416)",
			"(680,416)",
			"(681,416)",
			"(682,416)",
			"(684,416)",
			"(687,416)",
			"(690,417)",
			"(697,417)",
			"(706,417)",
			"(721,417)",
			"(730,417)",
			"(746,417)",
			"(776,423)",
			"(810,428)",
			"(839,435)",
			"(871,442)",
			"(893,447)",
			"(911,450)",
			"(929,454)",
			"(947,461)",
			"(974,470)",
			"(976,471)",
			"(979,472)",
			"(979,473)",
			"(976,473)",
			"(969,473)",
			"(963,473)",
			"(950,471)",
			"(941,466)",
			"(927,461)",
			"(920,459)",
			"(912,456)",
			"(898,451)",
			"(890,448)",
			"(879,445)",
			"(874,443)",
			"(869,441)",
			"(866,440)",
			"(860,438)",
			"(852,436)",
			"(843,433)",
			"(838,432)",
			"(835,431)",
			"(832,430)",
			"(831,430)",
			"(830,430)",
			"(828,430)",
			"(827,430)",
			"(826,429)",
			"(824,428)",
			"(822,427)",
			"(819,426)",
			"(817,425)",
			"(812,424)",
			"(807,423)",
			"(805,423)",
			"(799,423)",
			"(793,422)",
			"(791,422)",
			"(785,422)",
			"(779,421)",
			"(773,420)",
			"(762,420)",
			"(756,419)",
			"(750,416)",
			"(748,415)",
			"(742,413)",
			"(740,412)",
			"(734,411)",
			"(732,410)",
			"(725,407)",
			"(723,407)",
			"(717,406)",
			"(715,406)",
			"(712,405)",
			"(710,405)",
			"(708,405)",
			"(707,405)",
			"(705,404)",
			"(704,403)",
			"(703,403)",
			"(702,402)",
			"(701,401)",
			"(700,401)",
			"(699,401)",
			"(698,401)",
			"(697,401)",
			"(696,401)",
			"(695,401)",
			"(694,401)",
			"(693,400)",
			"(691,399)",
			"(688,398)",
			"(686,398)",
			"(684,398)",
			"(683,398)",
			"(681,396)",
			"(678,395)",
			"(677,394)",
			"(675,392)",
			"(673,388)",
			"(672,385)",
			"(669,381)",
			"(668,377)",
			"(665,374)",
			"(662,370)",
			"(661,367)",
			"(658,364)",
			"(656,361)",
			"(652,355)",
			"(649,349)",
			"(644,343)",
			"(641,337)",
			"(637,331)",
			"(635,326)",
			"(632,321)",
			"(629,315)",
			"(628,312)",
			"(626,306)",
			"(626,303)",
			"(625,297)",
			"(622,290)",
			"(621,285)",
			"(619,278)",
			"(617,275)",
			"(616,268)",
			"(615,264)",
			"(614,258)",
			"(613,253)",
			"(611,248)",
			"(610,242)",
			"(608,239)",
			"(607,233)",
			"(606,231)",
			"(606,226)",
			"(605,224)",
			"(604,221)",
			"(603,218)",
			"(602,215)",
			"(602,211)",
			"(600,209)",
			"(599,207)",
			"(598,205)",
			"(597,203)",
			"(597,200)",
			"(595,198)",
			"(594,195)",
			"(593,194)",
			"(591,191)",
			"(591,188)",
			"(590,187)",
			"(589,186)",
			"(589,185)",
			"(589,184)",
			"(589,183)",
			"(589,182)",
			"(589,181)",
			"(589,180)",
			"(589,181)",
			"(589,182)",
			"(590,182)",
			"(591,182)",
			"(592,182)",
			"(593,183)",
			"(593,184)",
			"(593,184)",
			"(595,186)",
			"(601,191)",
			"(603,192)",
			"(604,193)",
			"(607,195)",
			"(609,196)",
			"(611,201)",
			"(611,204)",
			"(614,206)",
			"(617,210)",
			"(621,214)",
			"(624,218)",
			"(628,223)",
			"(631,226)",
			"(636,229)",
			"(638,231)",
			"(640,233)",
			"(644,235)",
			"(645,238)",
			"(649,246)",
			"(652,248)",
			"(653,254)",
			"(653,256)",
			"(655,261)",
			"(657,263)",
			"(660,268)",
			"(664,272)",
			"(667,275)",
			"(672,279)",
			"(674,280)",
			"(679,283)",
			"(681,285)",
			"(683,289)",
			"(688,295)",
			"(689,300)",
			"(690,306)",
			"(691,310)",
			"(692,312)",
			"(694,316)",
			"(696,318)",
			"(698,320)",
			"(699,323)",
			"(702,328)",
			"(705,332)",
			"(708,336)",
			"(711,342)",
			"(715,347)",
			"(718,353)",
			"(720,355)",
			"(724,358)",
			"(727,364)",
			"(728,365)",
			"(729,367)",
			"(732,373)",
			"(733,375)",
			"(735,381)",
			"(736,387)",
			"(737,393)",
			"(738,396)",
			"(740,400)",
			"(742,403)",
			"(743,406)",
			"(746,408)",
			"(748,411)",
			"(751,416)",
			"(755,422)",
			"(759,425)",
			"(764,434)",
			"(766,438)",
			"(769,442)",
			"(770,444)",
			"(773,448)",
			"(774,451)",
			"(776,454)",
			"(777,456)",
			"(778,461)",
			"(780,463)",
			"(781,470)",
			"(784,472)",
			"(786,478)",
			"(788,482)",
			"(790,486)",
			"(792,488)",
			"(795,490)",
			"(797,494)",
			"(802,497)",
			"(804,499)",
			"(806,505)",
			"(808,507)",
			"(811,513)",
			"(813,516)",
			"(815,522)",
			"(817,528)",
			"(818,531)",
			"(819,535)",
			"(820,538)",
			"(821,541)",
			"(822,543)",
			"(824,548)",
			"(828,553)",
			"(830,559)",
			"(832,561)",
			"(837,568)",
			"(839,571)",
			"(841,574)",
			"(845,576)",
			"(848,581)",
			"(849,584)",
			"(851,586)",
			"(854,588)",
			"(856,594)",
			"(856,596)",
			"(858,603)",
			"(859,605)",
			"(860,610)",
			"(862,614)",
			"(862,617)",
			"(864,620)",
			"(865,622)",
			"(865,625)",
			"(867,627)",
			"(869,630)",
			"(871,635)",
			"(873,638)",
			"(875,644)",
			"(876,646)",
			"(880,652)",
			"(881,654)",
			"(883,656)",
			"(886,660)",
			"(888,662)",
			"(890,664)",
			"(892,667)",
			"(893,670)",
			"(896,675)",
			"(896,677)",
			"(897,679)",
			"(898,682)",
			"(899,687)",
			"(900,689)",
			"(900,694)",
			"(901,696)",
			"(901,699)",
			"(901,701)",
			"(903,703)",
			"(903,704)",
			"(903,705)",
			"(903,707)",
			"(904,709)",
			"(904,710)",
			"(904,713)",
			"(905,714)",
			"(906,717)",
			"(907,719)",
			"(907,722)",
			"(907,723)",
			"(907,725)",
			"(907,727)",
			"(907,730)",
			"(907,731)",
			"(907,732)",
			"(907,733)",
			"(908,735)",
			"(908,736)",
			"(908,737)",
			"(909,738)",
			"(909,739)",
			"(909,740)",
			"(910,742)",
			"(911,743)",
			"(911,745)",
			"(911,747)",
			"(912,748)",
			"(912,749)",
			"(913,750)",
			"(913,752)",
			"(913,753)",
			"(913,755)",
			"(914,757)",
			"(914,758)",
			"(914,759)",
			"(914,761)",
			"(914,762)",
			"(914,763)",
			"(915,764)",
			"(915,766)",
			"(916,767)",
			"(916,768)",
			"(916,769)",
			"(917,769)",
			"(917,770)",
			"(917,771)",
			"(918,772)",
			"(918,773)",
			"(918,774)",
			"(918,775)",
			"(919,775)"
		],
		"file_name": "tmt_A_black.jpg",
		"trial_type": "psychophysics",
		"trial_index": 1,
		"time_elapsed": 13566,
		"internal_node_id": "0.0-1.0-0.0"
	},
	{
		"rt": 6855.764999985695,
		"response_type": "mouse",
		"key_press": -1,
		"avg_frame_time": null,
		"click_x": 952,
		"click_y": 775,
		"position": [
			"(916,769)",
			"(914,752)",
			"(913,743)",
			"(909,722)",
			"(908,702)",
			"(908,685)",
			"(908,658)",
			"(906,630)",
			"(906,608)",
			"(908,577)",
			"(912,549)",
			"(914,526)",
			"(921,497)",
			"(923,481)",
			"(931,457)",
			"(941,436)",
			"(944,422)",
			"(953,406)",
			"(959,389)",
			"(960,382)",
			"(965,366)",
			"(965,361)",
			"(967,355)",
			"(968,345)",
			"(969,340)",
			"(971,335)",
			"(971,330)",
			"(971,327)",
			"(971,322)",
			"(971,319)",
			"(970,316)",
			"(969,311)",
			"(967,307)",
			"(966,301)",
			"(965,295)",
			"(962,289)",
			"(962,283)",
			"(961,278)",
			"(961,272)",
			"(960,265)",
			"(958,259)",
			"(957,250)",
			"(956,244)",
			"(953,238)",
			"(953,234)",
			"(952,227)",
			"(952,223)",
			"(952,217)",
			"(952,213)",
			"(952,209)",
			"(951,206)",
			"(951,204)",
			"(951,200)",
			"(950,199)",
			"(950,197)",
			"(950,194)",
			"(950,192)",
			"(950,191)",
			"(950,190)",
			"(950,188)",
			"(950,187)",
			"(950,185)",
			"(950,184)",
			"(950,183)",
			"(949,180)",
			"(949,179)",
			"(949,178)",
			"(949,177)",
			"(948,176)",
			"(948,174)",
			"(948,173)",
			"(947,172)",
			"(947,171)",
			"(947,170)",
			"(946,168)",
			"(946,167)",
			"(945,166)",
			"(945,165)",
			"(945,164)",
			"(945,162)",
			"(945,161)",
			"(945,160)",
			"(944,159)",
			"(943,158)",
			"(943,156)",
			"(943,155)",
			"(942,155)",
			"(942,154)",
			"(941,154)",
			"(939,154)",
			"(938,154)",
			"(938,153)",
			"(938,152)",
			"(938,151)",
			"(938,150)",
			"(937,150)",
			"(937,149)",
			"(937,148)",
			"(936,147)",
			"(935,147)",
			"(935,146)",
			"(935,144)",
			"(934,144)",
			"(934,143)",
			"(922,144)",
			"(909,146)",
			"(895,148)",
			"(870,154)",
			"(842,157)",
			"(814,157)",
			"(775,163)",
			"(753,162)",
			"(714,163)",
			"(692,163)",
			"(682,163)",
			"(659,161)",
			"(644,161)",
			"(636,161)",
			"(625,161)",
			"(612,161)",
			"(601,160)",
			"(593,160)",
			"(589,160)",
			"(586,160)",
			"(582,159)",
			"(579,159)",
			"(578,157)",
			"(576,156)",
			"(574,156)",
			"(571,156)",
			"(570,156)",
			"(568,156)",
			"(567,156)",
			"(566,156)",
			"(565,156)",
			"(564,156)",
			"(563,156)",
			"(562,156)",
			"(561,156)",
			"(560,155)",
			"(560,154)",
			"(561,153)",
			"(562,153)",
			"(563,153)",
			"(565,153)",
			"(567,153)",
			"(568,153)",
			"(568,154)",
			"(569,154)",
			"(570,154)",
			"(571,154)",
			"(571,155)",
			"(571,156)",
			"(571,157)",
			"(575,156)",
			"(580,156)",
			"(587,156)",
			"(599,156)",
			"(604,157)",
			"(613,158)",
			"(618,160)",
			"(622,161)",
			"(628,163)",
			"(631,163)",
			"(637,164)",
			"(642,164)",
			"(659,164)",
			"(662,165)",
			"(674,165)",
			"(683,167)",
			"(703,167)",
			"(720,168)",
			"(733,169)",
			"(749,170)",
			"(765,174)",
			"(771,176)",
			"(778,178)",
			"(784,180)",
			"(787,180)",
			"(789,181)",
			"(792,181)",
			"(793,182)",
			"(793,183)",
			"(792,184)",
			"(789,190)",
			"(784,193)",
			"(765,194)",
			"(750,196)",
			"(736,199)",
			"(723,202)",
			"(704,203)",
			"(684,206)",
			"(670,208)",
			"(660,208)",
			"(644,208)",
			"(630,208)",
			"(624,208)",
			"(613,206)",
			"(608,205)",
			"(600,202)",
			"(593,200)",
			"(588,197)",
			"(585,195)",
			"(583,193)",
			"(581,191)",
			"(580,189)",
			"(580,186)",
			"(579,186)",
			"(578,185)",
			"(577,183)",
			"(577,182)",
			"(577,181)",
			"(576,180)",
			"(576,179)",
			"(576,178)",
			"(576,177)",
			"(576,176)",
			"(576,175)",
			"(577,174)",
			"(578,173)",
			"(579,173)",
			"(579,172)",
			"(579,171)",
			"(579,170)",
			"(579,169)",
			"(579,168)",
			"(579,167)",
			"(578,166)",
			"(577,165)",
			"(577,164)",
			"(577,163)",
			"(577,162)",
			"(577,161)",
			"(577,162)",
			"(577,163)",
			"(579,163)",
			"(579,164)",
			"(579,165)",
			"(580,165)",
			"(580,166)",
			"(582,170)",
			"(588,179)",
			"(594,193)",
			"(597,195)",
			"(607,204)",
			"(620,217)",
			"(630,228)",
			"(643,245)",
			"(647,254)",
			"(652,261)",
			"(656,272)",
			"(661,278)",
			"(675,301)",
			"(681,310)",
			"(701,327)",
			"(706,338)",
			"(709,351)",
			"(713,358)",
			"(717,372)",
			"(719,375)",
			"(724,382)",
			"(733,393)",
			"(740,404)",
			"(747,415)",
			"(751,423)",
			"(757,428)",
			"(761,436)",
			"(767,447)",
			"(769,458)",
			"(772,467)",
			"(779,478)",
			"(780,480)",
			"(786,487)",
			"(791,494)",
			"(800,509)",
			"(801,511)",
			"(807,521)",
			"(809,523)",
			"(812,533)",
			"(813,536)",
			"(817,543)",
			"(822,551)",
			"(827,560)",
			"(832,569)",
			"(837,572)",
			"(841,578)",
			"(847,584)",
			"(852,590)",
			"(858,596)",
			"(862,607)",
			"(865,615)",
			"(870,623)",
			"(874,630)",
			"(879,635)",
			"(883,641)",
			"(890,647)",
			"(895,656)",
			"(899,663)",
			"(903,669)",
			"(906,676)",
			"(909,682)",
			"(911,684)",
			"(912,688)",
			"(914,692)",
			"(916,697)",
			"(919,703)",
			"(922,710)",
			"(924,715)",
			"(925,717)",
			"(930,726)",
			"(931,729)",
			"(933,731)",
			"(933,733)",
			"(936,736)",
			"(937,738)",
			"(938,743)",
			"(942,753)",
			"(943,755)",
			"(944,758)",
			"(945,761)",
			"(945,763)",
			"(946,764)",
			"(947,766)",
			"(947,768)",
			"(948,769)",
			"(948,770)",
			"(949,774)",
			"(949,775)",
			"(949,777)",
			"(951,778)",
			"(951,779)",
			"(951,781)",
			"(951,782)",
			"(951,783)",
			"(951,784)",
			"(951,785)",
			"(951,786)",
			"(951,787)",
			"(951,788)",
			"(952,788)"
		],
		"file_name": "tmt_B_black.jpg",
		"trial_type": "psychophysics",
		"trial_index": 2,
		"time_elapsed": 20440,
		"internal_node_id": "0.0-1.0-0.1"
	}
]