[
  {
    "success": true,
    "trial_type": "fullscreen",
    "trial_index": 0,
    "time_elapsed": 2288,
    "internal_node_id": "0.0-0.0",
    "rt": "",
    "response_type": "",
    "key_press": "",
    "avg_frame_time": "",
    "position_x": "",
    "position_y": "",
    "click_x": "",
    "click_y": "",
    "position": "",
    "file_name": ""
  },
  {
    "success": "",
    "trial_type": "psychophysics",
    "trial_index": 1,
    "time_elapsed": 23374,
    "internal_node_id": "0.0-1.0-0.0",
    "rt": 21072.474999993574,
    "response_type": "mouse",
    "key_press": -1,
    "avg_frame_time": "NaN",
    "position_x": "",
    "position_y": "",
    "click_x": 0,
    "click_y": 847,
    "position": "(100,164),(92,160),(75,147),(63,136),(49,120),(27,100),(21,95),(17,91),(10,86),(6,84),(3,81),(1,78),(1,76),(1,75),(1,73),(1,71),(1,69),(1,66),(1,64),(1,59),(1,57),(1,54),(0,49),(0,45),(0,41),(0,38),(0,33),(0,30),(0,28),(0,26),(0,24),(1,24),(1,25),(1,26),(1,27),(1,28),(1,27),(1,26),(1,25),(1,23),(1,22),(1,21),(1,22),(2,22),(3,22),(3,22),(3,23),(4,24),(5,24),(7,25),(9,26),(10,27),(13,28),(14,29),(15,30),(16,31),(16,32),(17,33),(17,34),(19,35),(20,35),(21,37),(23,38),(26,40),(29,42),(33,43),(35,44),(39,44),(41,46),(43,46),(45,46),(45,47),(48,47),(48,48),(50,49),(54,51),(56,52),(59,53),(61,54),(65,55),(68,58),(70,59),(72,61),(73,62),(75,64),(77,65),(78,68),(79,70),(81,71),(86,73),(91,74),(93,74),(98,77),(101,77),(104,78),(106,79),(109,80),(111,81),(112,83),(113,85),(115,86),(117,88),(119,91),(124,96),(128,100),(133,104),(138,107),(145,113),(148,116),(152,118),(163,125),(167,128),(171,131),(174,132),(177,136),(178,137),(179,138),(181,139),(182,142),(182,143),(183,143),(184,145),(185,146),(187,147),(188,148),(193,150),(195,152),(198,154),(202,156),(205,158),(207,159),(208,162),(211,164),(212,164),(215,165),(217,166),(221,168),(224,169),(226,170),(231,171),(233,172),(235,174),(239,177),(242,178),(244,182),(246,184),(251,186),(254,189),(257,192),(260,194),(265,197),(268,198),(271,199),(274,202),(275,203),(277,205),(281,209),(281,210),(286,214),(289,216),(296,220),(302,224),(305,227),(310,229),(313,234),(316,235),(318,238),(322,239),(327,241),(333,243),(336,246),(342,250),(346,253),(349,256),(350,258),(355,263),(360,264),(364,266),(371,269),(375,271),(378,272),(380,273),(383,275),(386,276),(389,277),(390,279),(394,281),(397,282),(401,285),(406,288),(410,290),(413,293),(417,296),(418,298),(421,299),(424,302),(431,305),(435,306),(441,308),(445,311),(450,313),(453,314),(455,318),(460,322),(465,326),(470,330),(477,334),(484,338),(487,341),(491,343),(497,348),(501,349),(504,351),(509,353),(515,357),(518,360),(523,363),(524,365),(528,367),(531,370),(535,372),(545,376),(552,379),(557,381),(561,382),(566,386),(570,388),(575,391),(584,397),(588,399),(593,403),(596,406),(601,410),(603,411),(607,412),(612,415),(614,416),(617,418),(620,418),(623,419),(627,421),(629,423),(632,424),(634,426),(635,427),(639,429),(640,431),(655,439),(665,444),(682,449),(688,460),(688,461),(690,461),(695,464),(703,468),(708,471),(711,472),(720,477),(729,479),(737,480),(745,482),(754,487),(763,490),(775,493),(787,496),(794,498),(802,500),(811,504),(823,507),(831,509),(839,513),(846,516),(864,522),(872,523),(878,526),(891,532),(902,536),(914,542),(925,548),(935,553),(948,560),(957,563),(967,568),(975,572),(984,576),(994,578),(1006,581),(1012,584),(1018,588),(1028,593),(1034,596),(1039,598),(1043,601),(1049,603),(1056,606),(1059,606),(1063,608),(1066,609),(1075,611),(1085,614),(1093,618),(1111,627),(1121,632),(1129,635),(1138,638),(1148,642),(1158,647),(1167,649),(1172,651),(1176,654),(1181,657),(1191,662),(1198,666),(1205,672),(1209,674),(1216,678),(1221,681),(1229,684),(1236,687),(1244,689),(1248,693),(1254,697),(1268,705),(1277,711),(1284,714),(1291,719),(1299,724),(1307,728),(1313,730),(1323,736),(1329,739),(1332,745),(1339,752),(1343,756),(1349,761),(1354,764),(1361,768),(1363,770),(1365,771),(1368,774),(1369,775),(1370,776),(1371,777),(1375,777),(1392,780),(1397,783),(1407,786),(1412,787),(1423,791),(1432,793),(1440,795),(1449,796),(1453,799),(1456,800),(1461,802),(1464,803),(1468,805),(1471,807),(1476,809),(1478,810),(1481,812),(1483,814),(1486,816),(1488,818),(1490,820),(1496,822),(1501,824),(1504,825),(1508,826),(1515,829),(1517,829),(1520,831),(1522,831),(1524,832),(1525,834),(1528,836),(1530,837),(1532,838),(1537,841),(1538,841),(1540,842),(1541,842),(1542,843),(1543,844),(1548,847),(1549,848),(1551,848),(1552,848),(1554,848),(1554,849),(1554,848),(1554,847),(1555,846),(1564,845),(1572,846),(1578,848),(1582,848),(1585,849),(1587,850),(1591,851),(1593,851),(1594,851),(1595,852),(1597,853),(1599,854),(1599,855),(1599,856),(1599,857),(1599,858),(1599,860),(1599,861),(1599,862),(1599,863),(1599,864),(1599,865),(1599,866),(1599,867),(1599,868),(1599,865),(1599,848),(1599,831),(1599,806),(1599,791),(1599,772),(1599,755),(1599,722),(1599,697),(1599,679),(1599,653),(1599,637),(1599,621),(1599,596),(1599,580),(1599,569),(1599,559),(1599,543),(1599,533),(1599,522),(1599,512),(1599,496),(1599,481),(1599,470),(1599,449),(1599,433),(1599,420),(1599,407),(1599,396),(1599,382),(1599,376),(1599,369),(1599,360),(1599,352),(1599,325),(1599,300),(1599,272),(1599,240),(1598,205),(1597,186),(1597,173),(1597,162),(1596,149),(1596,138),(1597,129),(1599,124),(1599,115),(1599,109),(1599,101),(1599,93),(1599,89),(1599,87),(1599,83),(1599,79),(1599,76),(1599,73),(1599,70),(1599,68),(1599,67),(1599,64),(1599,60),(1599,56),(1599,54),(1599,50),(1599,49),(1599,48),(1599,47),(1599,46),(1599,45),(1599,43),(1599,42),(1599,41),(1599,40),(1599,39),(1599,38),(1599,36),(1599,35),(1599,34),(1599,33),(1599,32),(1599,31),(1599,30),(1599,29),(1599,28),(1599,27),(1599,26),(1599,25),(1599,24),(1599,23),(1596,26),(1596,27),(1593,29),(1591,33),(1590,34),(1587,36),(1585,38),(1580,41),(1573,44),(1568,47),(1563,50),(1556,54),(1546,60),(1535,65),(1527,70),(1520,76),(1516,79),(1512,82),(1508,84),(1501,88),(1493,93),(1487,96),(1480,104),(1476,107),(1470,110),(1463,116),(1458,118),(1453,122),(1449,124),(1446,126),(1442,130),(1439,132),(1431,137),(1423,142),(1417,147),(1412,150),(1403,158),(1399,162),(1394,163),(1387,167),(1378,173),(1374,176),(1361,188),(1353,193),(1345,197),(1334,203),(1326,206),(1321,208),(1314,214),(1301,223),(1292,227),(1283,235),(1278,241),(1267,248),(1258,253),(1251,258),(1243,265),(1234,275),(1227,282),(1215,290),(1199,299),(1191,304),(1179,314),(1158,330),(1146,338),(1135,346),(1123,354),(1097,379),(1092,384),(1091,385),(1084,386),(1078,387),(1064,392),(1055,394),(1035,400),(1023,404),(1004,412),(985,419),(970,426),(953,432),(920,443),(908,448),(894,453),(869,464),(857,471),(843,480),(829,487),(817,493),(809,498),(799,501),(787,507),(776,515),(768,520),(752,530),(742,535),(734,539),(726,543),(722,546),(707,555),(700,559),(695,563),(693,564),(691,564),(682,566),(671,571),(657,576),(636,582),(629,584),(616,588),(602,592),(589,595),(579,600),(567,607),(557,612),(543,619),(534,623),(530,625),(513,632),(506,635),(500,636),(493,641),(488,645),(483,649),(482,649),(478,653),(473,654),(449,661),(435,667),(409,673),(392,679),(378,683),(357,690),(329,700),(311,706),(296,714),(283,721),(267,727),(258,733),(251,736),(248,741),(247,741),(239,742),(231,746),(223,750),(215,756),(205,763),(193,767),(185,769),(173,775),(167,779),(155,785),(147,790),(138,796),(134,801),(131,803),(126,805),(112,811),(105,813),(81,824),(70,829),(62,836),(56,840),(46,846),(42,848),(37,850),(33,853),(28,856),(25,857),(23,859),(20,860),(18,861),(15,862),(11,863),(9,863),(6,864),(5,864),(2,866),(1,866),(0,866),(0,867),(0,868)",
    "file_name": "tmt_A_black.jpg"
  },
  {
    "success": "",
    "trial_type": "psychophysics",
    "trial_index": 2,
    "time_elapsed": 41688,
    "internal_node_id": "0.0-1.0-0.1",
    "rt": 18298.67499996908,
    "response_type": "mouse",
    "key_press": -1,
    "avg_frame_time": "NaN",
    "position_x": "",
    "position_y": "",
    "click_x": 0,
    "click_y": 842,
    "position": "(0,868),(4,862),(14,852),(32,829),(55,779),(120,672),(149,612),(201,553),(232,507),(269,460),(280,447),(287,435),(291,424),(291,423),(262,406),(246,396),(229,380),(199,362),(184,345),(170,328),(155,313),(142,286),(136,263),(133,248),(125,220),(118,208),(113,197),(107,184),(102,176),(100,171),(92,161),(89,154),(83,136),(73,104),(67,95),(57,85),(49,80),(41,73),(38,70),(34,66),(32,63),(30,61),(28,60),(25,57),(22,55),(18,54),(16,50),(13,48),(11,47),(9,45),(7,43),(6,42),(5,41),(4,40),(4,38),(4,37),(4,36),(2,36),(2,35),(2,34),(2,33),(2,32),(2,31),(2,30),(2,29),(1,29),(1,28),(1,27),(1,26),(1,25),(1,24),(1,23),(1,22),(2,23),(9,26),(17,29),(27,34),(39,37),(43,39),(49,42),(56,45),(63,48),(68,51),(74,55),(79,60),(82,65),(85,68),(92,72),(98,75),(105,77),(112,80),(118,83),(120,87),(127,90),(137,96),(145,100),(151,104),(156,108),(165,114),(172,117),(181,121),(193,124),(196,128),(197,130),(200,130),(204,133),(209,135),(215,139),(217,141),(218,143),(221,145),(223,147),(227,149),(232,152),(239,154),(245,155),(248,157),(253,161),(254,162),(258,166),(264,170),(271,175),(277,178),(284,183),(293,187),(297,190),(305,193),(317,197),(332,202),(338,206),(346,211),(360,220),(369,226),(375,228),(382,234),(388,237),(394,241),(401,244),(408,249),(415,253),(418,258),(423,261),(432,267),(439,271),(446,272),(451,275),(457,277),(463,281),(472,284),(479,286),(486,288),(489,291),(492,293),(493,295),(498,302),(498,303),(498,305),(500,306),(501,308),(505,312),(509,315),(512,320),(519,324),(530,332),(536,336),(541,339),(544,341),(550,345),(558,347),(565,350),(577,356),(583,361),(592,369),(608,377),(625,387),(634,393),(644,401),(658,408),(678,423),(692,429),(703,436),(715,443),(722,447),(727,455),(745,471),(767,483),(780,489),(790,497),(799,504),(813,510),(813,511),(816,513),(822,515),(834,518),(841,521),(846,524),(849,529),(857,536),(864,540),(873,546),(883,552),(890,555),(897,557),(908,562),(915,565),(922,569),(925,573),(934,580),(944,588),(955,592),(968,598),(977,602),(988,607),(1000,610),(1014,615),(1019,618),(1028,625),(1037,630),(1051,636),(1056,639),(1060,642),(1063,644),(1067,648),(1072,651),(1074,651),(1084,654),(1092,657),(1109,663),(1120,668),(1124,670),(1129,674),(1140,678),(1157,680),(1168,684),(1179,689),(1186,693),(1194,696),(1203,701),(1209,705),(1212,707),(1216,709),(1223,711),(1227,712),(1232,715),(1238,716),(1246,718),(1250,719),(1254,722),(1261,726),(1296,745),(1323,753),(1325,760),(1330,760),(1332,760),(1338,763),(1350,766),(1359,771),(1365,772),(1369,772),(1374,772),(1378,773),(1383,774),(1389,775),(1399,779),(1404,781),(1408,782),(1414,786),(1421,788),(1428,789),(1435,792),(1443,795),(1448,796),(1450,798),(1456,802),(1465,807),(1470,811),(1476,814),(1482,819),(1485,821),(1490,822),(1496,825),(1505,826),(1512,827),(1516,828),(1523,831),(1527,834),(1531,835),(1537,837),(1542,839),(1545,840),(1549,841),(1552,842),(1554,843),(1555,843),(1556,843),(1556,844),(1557,844),(1557,845),(1558,847),(1560,848),(1561,849),(1562,850),(1564,851),(1566,852),(1569,854),(1573,854),(1576,854),(1579,855),(1581,856),(1583,856),(1585,857),(1586,857),(1587,857),(1588,857),(1589,857),(1591,858),(1591,857),(1591,855),(1591,853),(1591,851),(1592,847),(1594,832),(1595,812),(1599,788),(1595,756),(1595,743),(1596,730),(1596,719),(1596,700),(1596,689),(1595,676),(1593,660),(1593,649),(1591,639),(1590,631),(1586,620),(1586,612),(1586,601),(1585,590),(1584,580),(1583,573),(1583,555),(1582,540),(1581,531),(1581,514),(1581,496),(1581,470),(1581,457),(1581,442),(1581,423),(1581,411),(1581,396),(1581,388),(1581,373),(1581,361),(1581,348),(1583,328),(1585,319),(1585,316),(1585,312),(1585,310),(1585,308),(1585,300),(1585,289),(1585,275),(1583,246),(1582,219),(1579,203),(1578,192),(1578,182),(1580,164),(1580,149),(1581,141),(1583,127),(1584,118),(1584,110),(1584,103),(1584,99),(1584,96),(1584,89),(1584,82),(1583,79),(1582,76),(1582,74),(1582,71),(1582,68),(1582,64),(1582,60),(1582,58),(1582,57),(1582,56),(1582,55),(1582,54),(1583,53),(1584,52),(1584,51),(1585,50),(1585,48),(1587,46),(1588,44),(1589,42),(1589,41),(1590,40),(1590,39),(1590,38),(1591,37),(1591,36),(1591,35),(1591,34),(1593,33),(1593,32),(1594,31),(1595,30),(1595,29),(1595,28),(1595,26),(1595,25),(1594,24),(1594,23),(1594,22),(1594,21),(1594,21),(1594,22),(1592,23),(1592,24),(1592,25),(1592,26),(1592,27),(1592,28),(1592,29),(1591,30),(1591,31),(1587,34),(1575,39),(1565,44),(1557,48),(1540,61),(1523,69),(1511,76),(1494,86),(1477,94),(1461,102),(1449,113),(1439,118),(1429,125),(1419,130),(1408,137),(1396,146),(1382,156),(1364,168),(1354,177),(1342,185),(1323,194),(1310,201),(1283,218),(1267,225),(1256,231),(1239,239),(1228,245),(1224,249),(1221,253),(1216,253),(1214,253),(1207,253),(1191,256),(1174,265),(1158,272),(1145,277),(1129,283),(1112,286),(1097,294),(1068,309),(1052,317),(1037,326),(1007,340),(993,346),(979,354),(961,366),(939,380),(925,386),(908,393),(894,400),(877,410),(859,421),(846,428),(832,437),(813,447),(799,454),(789,462),(779,469),(772,473),(771,473),(767,476),(760,480),(746,485),(731,492),(722,496),(696,513),(677,524),(662,534),(629,546),(614,556),(595,569),(572,581),(552,591),(535,599),(525,603),(514,612),(508,618),(507,619),(505,623),(504,623),(499,626),(489,628),(475,635),(470,639),(459,647),(448,654),(431,663),(423,666),(413,672),(392,684),(379,693),(370,702),(362,708),(347,715),(344,717),(341,718),(340,719),(334,722),(324,725),(312,728),(305,730),(294,737),(278,746),(266,750),(258,756),(251,760),(237,766),(227,770),(219,774),(207,784),(198,788),(192,792),(187,796),(181,800),(172,804),(152,810),(130,815),(102,825),(80,831),(68,835),(57,839),(38,846),(30,850),(23,853),(15,857),(5,861),(1,862),(0,863)",
    "file_name": "tmt_B_black.jpg"
  }
]