[
  {
    "success": true,
    "trial_type": "fullscreen",
    "trial_index": 0,
    "time_elapsed": 2393,
    "internal_node_id": "0.0-0.0",
    "rt": "",
    "response_type": "",
    "key_press": "",
    "avg_frame_time": "",
    "position_x": "",
    "position_y": "",
    "click_x": "",
    "click_y": "",
    "position": "",
    "file_name": ""
  },
  {
    "success": "",
    "trial_type": "psychophysics",
    "trial_index": 1,
    "time_elapsed": 73602,
    "internal_node_id": "0.0-1.0-0.0",
    "rt": 71195.16999996267,
    "response_type": "mouse",
    "key_press": -1,
    "avg_frame_time": "NaN",
    "position_x": "",
    "position_y": "",
    "click_x": 632,
    "click_y": 735,
    "position": "(617,307),(616,307),(615,308),(614,308),(613,309),(610,310),(608,311),(605,311),(603,311),(602,312),(601,312),(601,313),(601,314),(601,315),(601,316),(600,316),(599,317),(594,319),(589,322),(584,323),(578,326),(576,326),(574,326),(573,326),(569,324),(568,319),(567,316),(567,311),(567,310),(567,309),(568,309),(570,309),(572,309),(573,309),(574,309),(575,309),(575,308),(575,307),(575,306),(575,305),(575,304),(575,301),(576,299),(576,295),(578,290),(579,286),(581,279),(583,273),(587,267),(588,263),(590,258),(590,255),(590,253),(590,250),(589,246),(585,242),(583,239),(577,234),(575,231),(573,229),(571,225),(569,219),(567,217),(566,214),(563,211),(563,210),(562,207),(561,204),(560,196),(560,190),(560,187),(560,184),(560,182),(560,180),(560,178),(560,176),(560,174),(560,173),(560,172),(560,170),(559,170),(559,169),(559,168),(558,165),(556,165),(556,164),(555,161),(555,160),(554,159),(554,158),(553,156),(553,155),(552,154),(552,153),(552,152),(552,153),(552,154),(552,155),(552,156),(552,157),(553,158),(553,158),(553,159),(553,160),(553,162),(553,165),(553,166),(553,169),(553,173),(552,174),(552,179),(552,183),(552,186),(552,190),(552,192),(552,197),(552,201),(551,204),(551,207),(551,210),(551,213),(551,214),(551,218),(551,221),(551,224),(551,228),(551,232),(551,233),(551,234),(552,234),(553,233),(554,233),(555,232),(557,232),(559,232),(562,232),(567,232),(570,231),(574,231),(576,231),(579,231),(580,231),(581,231),(584,231),(588,230),(592,230),(596,230),(601,231),(604,231),(606,231),(608,231),(609,231),(612,232),(614,232),(616,232),(619,231),(621,231),(623,230),(624,230),(625,230),(626,230),(627,230),(628,230),(629,230),(630,230),(631,230),(632,230),(632,229),(633,229),(633,227),(634,223),(634,219),(633,217),(633,214),(633,212),(633,210),(633,208),(634,201),(635,192),(635,190),(635,186),(635,182),(635,180),(635,178),(635,175),(635,172),(635,168),(635,165),(635,164),(634,163),(633,161),(633,160),(632,160),(632,158),(631,157),(630,156),(629,155),(628,155),(627,155),(626,155),(624,155),(623,155),(621,155),(617,155),(616,156),(614,157),(611,157),(604,158),(600,158),(593,159),(589,161),(586,161),(583,162),(580,163),(579,163),(576,163),(570,165),(567,165),(565,166),(561,167),(559,167),(557,167),(555,167),(553,167),(552,167),(551,167),(550,167),(549,167),(548,167),(547,167),(546,167),(546,166),(546,165),(546,164),(547,163),(549,162),(552,160),(553,160),(554,159),(555,159),(557,159),(559,159),(562,159),(569,158),(573,158),(575,158),(579,156),(583,156),(587,156),(591,156),(597,156),(602,156),(605,156),(608,156),(611,156),(612,156),(613,156),(615,156),(617,156),(620,156),(623,156),(626,156),(629,156),(630,156),(633,157),(635,157),(636,157),(637,157),(638,157),(639,157),(640,157),(641,157),(642,156),(645,155),(647,153),(649,152),(652,152),(658,150),(661,149),(664,149),(668,148),(670,148),(672,148),(673,148),(674,148),(675,148),(677,148),(682,146),(687,146),(693,146),(697,146),(703,145),(704,145),(707,145),(708,145),(712,145),(714,145),(719,144),(724,143),(727,143),(730,143),(732,143),(734,143),(735,143),(736,143),(738,143),(739,143),(739,144),(739,145),(739,146),(739,148),(739,149),(739,152),(739,156),(739,162),(739,165),(739,168),(739,170),(739,173),(739,177),(739,182),(739,189),(739,196),(739,201),(738,203),(738,206),(738,208),(738,209),(737,212),(737,216),(736,221),(736,224),(735,228),(735,229),(734,230),(734,231),(733,231),(732,231),(730,231),(729,231),(727,231),(722,230),(717,228),(713,226),(711,226),(710,226),(708,226),(702,225),(697,224),(693,222),(684,222),(680,222),(678,222),(677,222),(674,222),(673,222),(672,222),(671,222),(670,222),(669,222),(669,221),(669,219),(669,218),(668,218),(668,216),(667,214),(666,211),(666,206),(666,201),(665,193),(665,184),(665,174),(665,172),(665,167),(665,164),(665,157),(665,153),(665,151),(666,147),(666,146),(666,144),(667,144),(667,145),(667,146),(667,148),(668,149),(668,151),(669,152),(670,153),(670,154),(671,155),(672,155),(673,155),(674,155),(676,155),(678,155),(683,154),(690,152),(693,152),(698,151),(701,150),(705,148),(706,147),(707,146),(708,146),(710,145),(712,144),(713,144),(718,143),(720,143),(723,143),(727,143),(731,143),(733,143),(734,143),(736,143),(738,143),(739,143),(740,143),(742,143),(745,143),(748,143),(751,143),(752,143),(754,143),(755,143),(757,143),(761,142),(762,142),(763,142),(765,142),(766,142),(767,142),(768,142),(769,142),(773,142),(776,142),(782,142),(791,142),(797,142),(798,142),(801,142),(803,142),(804,142),(808,142),(812,141),(815,141),(817,141),(822,140),(823,140),(825,140),(828,140),(830,140),(831,140),(833,140),(835,140),(835,141),(836,141),(836,142),(836,143),(836,144),(836,146),(836,147),(836,148),(836,150),(836,153),(837,156),(838,160),(840,163),(841,167),(841,172),(842,179),(843,186),(844,191),(844,197),(845,202),(845,203),(845,205),(845,209),(845,210),(845,213),(844,215),(843,216),(843,218),(842,219),(840,220),(839,220),(838,220),(836,220),(835,220),(833,220),(832,220),(829,220),(825,220),(817,219),(810,219),(802,219),(799,218),(794,217),(784,215),(777,215),(773,215),(770,214),(767,213),(765,212),(764,212),(763,212),(763,208),(763,205),(764,199),(766,187),(768,179),(770,175),(771,170),(773,165),(774,162),(774,159),(776,155),(776,154),(776,153),(777,152),(777,151),(778,150),(778,149),(778,148),(778,147),(778,146),(778,145),(779,144),(780,144),(781,144),(782,144),(783,144),(784,144),(785,144),(788,144),(789,143),(791,143),(792,143),(794,143),(795,143),(800,143),(804,143),(809,143),(817,143),(822,143),(824,143),(827,143),(828,143),(830,143),(833,143),(840,142),(845,141),(850,141),(854,141),(858,141),(860,141),(863,140),(867,140),(873,139),(880,139),(886,139),(891,138),(894,138),(895,138),(896,138),(897,138),(900,138),(903,138),(907,138),(914,138),(916,138),(920,138),(924,139),(926,140),(927,140),(930,140),(933,140),(947,140),(950,140),(954,140),(955,140),(955,141),(955,142),(954,142),(953,143),(951,144),(950,145),(948,146),(947,148),(947,149),(945,151),(945,154),(945,157),(945,162),(943,167),(943,170),(942,174),(942,180),(942,185),(941,192),(941,196),(940,203),(940,205),(940,206),(939,207),(939,209),(938,210),(938,211),(937,213),(937,214),(936,214),(935,214),(931,214),(925,216),(919,217),(914,218),(907,220),(901,220),(897,220),(881,220),(874,221),(869,221),(866,221),(863,223),(862,223),(860,223),(860,222),(860,221),(860,219),(860,218),(861,216),(862,213),(862,212),(862,209),(862,207),(862,203),(861,191),(859,183),(856,172),(856,168),(856,165),(856,162),(857,155),(858,151),(859,148),(861,144),(862,137),(864,134),(864,135),(864,136),(863,136),(863,137),(863,138),(863,139),(863,141),(863,142),(863,144),(863,146),(863,147),(863,148),(863,149),(862,151),(862,153),(862,154),(862,156),(862,163),(863,170),(863,178),(863,185),(863,190),(863,192),(863,193),(863,195),(863,196),(863,197),(864,199),(864,201),(864,202),(865,203),(866,208),(867,211),(867,214),(867,215),(867,217),(868,219),(868,220),(868,222),(868,223),(869,223),(870,224),(871,224),(872,224),(873,224),(876,224),(879,224),(883,222),(886,222),(888,222),(893,222),(899,222),(905,222),(910,222),(917,223),(919,223),(921,223),(922,224),(925,224),(926,224),(929,224),(934,224),(936,224),(942,226),(949,226),(955,228),(962,229),(967,229),(968,229),(968,230),(968,231),(968,232),(968,233),(964,239),(964,244),(964,249),(964,253),(964,254),(964,261),(964,266),(964,271),(964,275),(964,282),(964,285),(964,287),(964,289),(964,291),(964,292),(963,293),(963,295),(963,296),(963,297),(963,298),(962,299),(962,300),(961,300),(961,301),(958,301),(957,301),(956,301),(955,301),(951,301),(943,300),(936,300),(929,300),(924,300),(921,300),(917,300),(907,296),(901,296),(896,296),(894,296),(891,297),(890,297),(889,297),(888,297),(886,297),(885,297),(884,297),(883,297),(882,295),(882,294),(882,293),(882,292),(882,291),(883,287),(885,281),(886,273),(889,268),(891,257),(893,252),(894,248),(896,244),(898,237),(898,232),(898,230),(898,227),(898,226),(898,225),(899,225),(900,223),(900,222),(900,221),(900,222),(900,223),(900,222),(898,222),(896,222),(895,222),(894,222),(893,222),(890,222),(889,222),(886,222),(882,222),(880,222),(877,222),(874,222),(870,223),(866,224),(862,226),(859,228),(856,230),(852,231),(848,233),(840,235),(837,236),(831,237),(829,237),(825,237),(822,237),(819,237),(815,237),(810,237),(807,237),(803,237),(799,238),(797,239),(794,239),(793,239),(791,239),(790,239),(788,239),(788,240),(788,241),(788,242),(788,243),(788,244),(788,245),(789,247),(789,251),(789,256),(790,261),(791,266),(792,270),(792,278),(792,282),(792,284),(792,287),(792,291),(793,295),(793,299),(794,302),(794,304),(794,305),(794,306),(794,308),(795,308),(796,308),(797,308),(798,308),(804,308),(813,308),(824,308),(828,308),(836,307),(844,307),(854,308),(858,309),(860,309),(862,309),(867,310),(870,310),(873,310),(877,309),(878,309),(879,308),(879,306),(879,305),(879,304),(879,303),(879,302),(880,299),(880,297),(880,293),(880,289),(882,276),(882,266),(882,252),(882,237),(883,231),(883,227),(883,223),(882,217),(882,215),(882,214),(882,213),(882,214),(882,216),(882,218),(882,220),(881,221),(880,223),(879,226),(875,228),(874,228),(871,228),(869,228),(867,228),(866,228),(862,228),(859,228),(856,228),(854,228),(850,230),(847,231),(846,231),(844,231),(843,231),(842,232),(840,232),(838,232),(836,233),(834,234),(829,237),(820,239),(812,241),(803,242),(798,243),(787,245),(779,245),(772,245),(760,245),(756,245),(751,245),(744,244),(737,243),(733,242),(728,242),(721,242),(717,240),(709,239),(704,239),(698,236),(694,236),(689,235),(682,235),(674,235),(671,235),(668,235),(667,235),(664,235),(662,235),(659,234),(655,234),(651,234),(647,234),(644,234),(641,234),(639,234),(637,234),(633,234),(630,234),(625,236),(620,237),(610,238),(605,238),(603,238),(600,238),(599,238),(599,239),(598,240),(597,240),(597,241),(597,242),(597,244),(597,246),(597,253),(598,258),(598,262),(598,269),(598,274),(598,277),(598,281),(598,284),(598,286),(598,288),(598,291),(598,293),(598,294),(598,295),(598,296),(598,297),(598,298),(598,299),(598,301),(598,302),(598,304),(598,306),(598,308),(598,310),(598,311),(598,313),(598,316),(598,317),(599,317),(600,317),(602,317),(608,314),(614,314),(624,317),(630,319),(637,320),(645,321),(649,321),(653,322),(656,323),(658,324),(660,325),(661,325),(665,325),(667,325),(669,325),(676,325),(679,325),(680,325),(682,325),(683,323),(684,322),(685,322),(685,321),(686,321),(687,320),(687,319),(688,317),(688,315),(688,313),(688,308),(688,304),(688,299),(688,292),(688,279),(689,272),(689,268),(692,260),(692,256),(692,252),(692,247),(693,246),(694,244),(694,243),(694,240),(694,238),(695,238),(695,237),(695,238),(696,238),(698,238),(699,238),(700,238),(702,238),(707,235),(708,235),(711,235),(712,235),(714,235),(715,235),(716,235),(717,235),(718,235),(718,236),(719,236),(719,237),(720,238),(720,239),(721,240),(721,241),(724,242),(726,243),(730,245),(732,247),(733,248),(733,249),(733,250),(733,252),(733,253),(733,255),(733,259),(733,261),(733,263),(733,266),(733,269),(733,273),(733,278),(733,285),(733,289),(733,293),(733,296),(733,298),(733,301),(733,303),(733,307),(733,311),(733,315),(733,318),(732,323),(732,326),(732,329),(732,332),(731,334),(731,337),(730,340),(730,343),(730,346),(730,347),(730,349),(730,351),(728,353),(728,354),(728,356),(728,357),(728,359),(728,360),(728,361),(728,362),(728,363),(728,365),(728,366),(729,367),(730,367),(734,367),(740,367),(744,367),(746,368),(750,368),(752,368),(757,369),(764,369),(774,369),(779,369),(781,369),(784,369),(787,369),(790,368),(792,368),(798,368),(801,368),(804,368),(807,368),(809,368),(811,368),(812,368),(813,368),(813,367),(814,366),(814,365),(814,363),(813,359),(811,352),(810,341),(809,334),(809,327),(809,321),(809,318),(810,309),(810,303),(810,298),(810,297),(810,296),(811,296),(811,295),(809,295),(808,295),(806,296),(803,298),(801,298),(798,298),(793,298),(790,298),(788,298),(787,298),(783,298),(780,297),(777,296),(773,294),(766,292),(761,291),(758,291),(755,290),(753,290),(752,290),(751,290),(747,290),(745,289),(742,289),(740,289),(739,289),(737,289),(736,289),(735,289),(733,289),(733,290),(733,291),(733,292),(733,293),(733,295),(733,296),(733,298),(732,299),(730,300),(729,301),(728,303),(726,305),(723,307),(720,310),(716,314),(714,316),(711,319),(710,322),(707,326),(706,329),(704,332),(702,335),(700,338),(696,341),(693,346),(689,349),(685,352),(682,356),(678,358),(676,361),(674,362),(673,363),(672,365),(672,367),(672,368),(672,369),(672,370),(671,372),(671,373),(670,375),(669,378),(669,380),(668,382),(667,385),(667,387),(667,391),(666,394),(665,396),(665,398),(663,402),(663,405),(663,408),(662,410),(661,413),(661,414),(660,415),(657,418),(656,419),(655,422),(654,424),(651,427),(650,429),(649,431),(647,434),(647,435),(646,437),(644,438),(644,439),(643,441),(643,442),(642,442),(641,442),(640,442),(639,442),(639,443),(636,443),(630,443),(627,443),(621,443),(613,441),(606,441),(601,441),(594,441),(590,441),(585,441),(579,440),(575,440),(572,440),(571,440),(570,440),(570,439),(570,438),(570,437),(570,436),(570,435),(570,434),(570,432),(572,422),(572,411),(572,405),(572,400),(572,392),(573,388),(573,383),(573,381),(573,378),(573,377),(574,376),(577,369),(578,365),(579,363),(579,361),(580,360),(581,360),(582,360),(585,363),(594,363),(612,362),(628,362),(643,361),(662,361),(670,362),(676,362),(678,362),(679,362),(680,362),(681,362),(682,362),(683,363),(683,364),(683,365),(683,366),(679,367),(678,367),(677,367),(677,368),(678,368),(678,369),(679,371),(681,373),(682,374),(684,375),(685,377),(687,378),(687,380),(689,381),(690,381),(692,381),(692,383),(693,383),(694,383),(695,383),(699,383),(700,383),(702,383),(704,384),(705,386),(706,387),(706,389),(706,390),(706,391),(706,393),(706,396),(706,398),(706,401),(706,403),(706,410),(706,415),(706,420),(706,427),(706,429),(706,431),(706,433),(707,439),(707,443),(707,448),(708,453),(708,457),(708,460),(708,462),(708,464),(708,466),(708,467),(708,468),(709,468),(709,469),(709,470),(709,471),(710,471),(710,472),(710,473),(711,474),(712,478),(712,480),(712,481),(712,483),(713,483),(713,484),(713,485),(714,485),(715,485),(717,484),(721,484),(725,484),(736,484),(740,483),(746,482),(752,481),(758,481),(768,480),(773,479),(777,478),(780,476),(782,476),(783,476),(786,476),(788,475),(790,473),(793,473),(794,472),(795,470),(795,466),(795,464),(795,458),(793,442),(793,437),(792,430),(792,422),(792,416),(792,411),(792,406),(792,398),(792,393),(792,390),(792,389),(791,389),(789,389),(788,389),(784,389),(783,390),(781,391),(778,392),(774,392),(769,392),(759,393),(751,395),(746,395),(741,396),(737,396),(730,397),(720,398),(713,399),(710,400),(707,400),(705,400),(704,400),(702,400),(702,401),(702,402),(702,403),(702,404),(701,405),(700,406),(699,407),(698,410),(697,412),(697,413),(696,414),(696,416),(695,417),(695,419),(694,422),(694,424),(694,427),(693,430),(693,434),(693,437),(693,440),(693,445),(693,447),(693,451),(693,453),(693,456),(693,460),(693,465),(693,472),(693,476),(693,480),(693,481),(693,485),(693,487),(693,488),(695,492),(695,496),(695,501),(695,506),(695,510),(697,513),(697,514),(698,516),(698,519),(698,521),(698,524),(699,527),(699,531),(700,534),(700,537),(700,542),(700,545),(700,547),(700,549),(700,551),(700,552),(700,553),(700,556),(700,558),(700,559),(700,562),(700,564),(700,565),(700,566),(700,569),(699,570),(699,571),(699,572),(699,574),(698,574),(697,575),(696,575),(694,575),(690,575),(683,575),(679,575),(674,575),(670,575),(659,575),(652,575),(645,575),(640,575),(637,574),(635,574),(631,573),(628,573),(621,571),(615,570),(611,570),(608,570),(607,570),(606,570),(605,570),(605,569),(606,569),(608,567),(609,566),(612,563),(614,556),(615,552),(616,550),(617,547),(618,543),(619,537),(621,532),(622,526),(623,522),(625,519),(627,516),(628,514),(629,513),(631,512),(633,510),(634,508),(635,507),(635,506),(636,506),(637,506),(638,506),(639,507),(640,507),(641,507),(657,507),(666,507),(672,507),(677,507),(681,506),(685,506),(687,506),(693,506),(697,506),(701,506),(704,506),(706,506),(708,507),(709,507),(707,507),(703,506),(700,504),(694,502),(687,500),(683,498),(677,497),(674,495),(669,492),(663,489),(655,486),(646,484),(641,482),(639,480),(635,478),(634,476),(633,474),(631,472),(628,471),(626,470),(622,469),(620,469),(615,469),(613,469),(608,468),(606,466),(601,466),(596,467),(589,468),(582,468),(578,468),(575,468),(572,469),(569,469),(565,469),(562,470),(558,472),(556,472),(554,474),(552,474),(551,474),(550,475),(550,476),(550,477),(550,479),(550,481),(550,482),(550,483),(550,485),(551,488),(552,497),(552,504),(553,511),(554,524),(554,533),(554,541),(554,545),(554,548),(554,550),(555,551),(555,552),(555,554),(556,555),(557,555),(560,552),(566,547),(573,545),(581,544),(591,543),(602,543),(606,543),(608,543),(609,543),(612,543),(614,543),(617,543),(620,542),(624,541),(625,540),(626,539),(627,538),(628,537),(629,536),(631,534),(632,533),(632,531),(632,529),(633,525),(633,520),(633,517),(635,501),(638,491),(638,480),(638,465),(638,454),(635,445),(633,439),(633,437),(633,436),(633,438),(633,440),(633,442),(633,443),(633,446),(633,447),(633,448),(633,450),(633,451),(634,455),(634,456),(641,462),(648,465),(666,471),(676,474),(680,475),(683,477),(685,477),(687,478),(689,479),(690,480),(691,480),(692,480),(693,480),(695,480),(697,480),(698,480),(700,480),(703,479),(706,479),(710,479),(715,478),(718,478),(721,478),(726,477),(731,476),(732,476),(733,476),(735,476),(737,476),(738,476),(740,476),(742,476),(743,476),(745,475),(748,475),(749,475),(751,475),(753,475),(755,475),(757,475),(760,475),(762,475),(765,475),(766,475),(769,475),(773,475),(775,475),(776,475),(777,475),(778,475),(779,475),(780,475),(781,475),(783,475),(784,475),(785,475),(786,475),(787,475),(790,476),(794,477),(797,479),(798,479),(800,481),(801,481),(801,482),(802,484),(802,485),(802,486),(802,488),(803,490),(803,492),(803,496),(804,501),(804,508),(803,516),(799,527),(797,533),(794,539),(791,546),(791,553),(791,557),(791,561),(791,563),(790,568),(789,569),(788,570),(786,572),(785,572),(784,572),(782,571),(779,570),(776,569),(772,567),(763,567),(754,567),(745,566),(737,564),(732,563),(721,560),(714,560),(712,560),(709,560),(708,560),(705,561),(703,561),(701,561),(700,561),(700,559),(701,559),(702,555),(705,548),(707,544),(708,540),(710,536),(712,529),(713,522),(714,515),(716,506),(717,501),(717,497),(717,494),(719,493),(719,491),(720,488),(721,486),(721,485),(721,484),(722,484),(726,484),(728,484),(733,482),(736,481),(740,479),(743,477),(746,475),(751,474),(756,472),(758,472),(763,471),(766,469),(769,469),(773,468),(779,467),(784,465),(787,464),(790,462),(794,460),(797,459),(799,458),(801,455),(805,454),(809,453),(815,452),(827,450),(831,450),(835,448),(837,446),(840,444),(842,444),(844,444),(848,443),(851,443),(856,443),(862,443),(865,443),(867,443),(868,443),(869,443),(870,443),(871,443),(872,443),(873,443),(874,443),(876,443),(876,444),(876,445),(876,446),(876,448),(876,449),(877,451),(878,455),(879,457),(879,461),(879,463),(879,468),(879,472),(879,477),(878,486),(878,491),(876,499),(875,502),(873,508),(873,511),(870,515),(869,521),(868,522),(868,524),(867,525),(865,527),(864,528),(863,528),(862,528),(861,528),(860,528),(859,528),(855,528),(850,528),(844,528),(838,528),(834,526),(822,522),(810,521),(798,520),(793,518),(789,515),(786,515),(784,515),(785,515),(786,516),(788,516),(789,516),(790,516),(791,513),(792,512),(794,507),(794,504),(794,502),(794,493),(794,489),(794,482),(797,468),(799,464),(800,461),(803,458),(804,457),(805,456),(809,456),(811,455),(813,454),(815,453),(819,452),(822,452),(824,451),(827,450),(833,446),(840,444),(848,440),(858,436),(862,432),(864,430),(869,428),(876,422),(883,420),(887,417),(889,414),(892,411),(893,409),(894,408),(894,407),(895,405),(897,403),(897,402),(899,401),(900,400),(900,399),(903,398),(904,398),(905,397),(906,397),(908,397),(909,397),(911,396),(913,396),(917,394),(919,393),(922,393),(924,392),(925,391),(927,391),(928,391),(929,391),(930,391),(933,390),(936,389),(938,389),(939,389),(940,389),(941,389),(940,389),(939,389),(938,389),(937,389),(936,389),(933,389),(931,389),(930,389),(927,389),(923,387),(918,386),(908,385),(898,384),(893,383),(891,381),(887,381),(885,380),(883,380),(880,379),(879,379),(879,378),(879,376),(879,375),(879,374),(879,372),(879,370),(879,366),(879,362),(877,356),(876,352),(876,346),(876,339),(876,333),(876,327),(876,324),(877,319),(878,318),(879,317),(882,313),(883,312),(883,310),(883,308),(884,307),(884,309),(885,309),(886,310),(889,312),(890,313),(897,313),(904,311),(913,310),(918,309),(921,309),(925,309),(928,307),(930,306),(932,305),(936,304),(941,303),(943,303),(948,303),(949,303),(950,303),(951,303),(953,303),(955,303),(956,304),(958,305),(958,306),(958,307),(958,308),(958,310),(958,311),(958,313),(958,314),(959,315),(959,317),(960,321),(960,327),(960,330),(960,336),(960,341),(960,344),(960,347),(960,350),(960,355),(960,358),(960,362),(960,365),(960,369),(960,372),(959,374),(959,376),(959,377),(959,378),(958,379),(958,380),(957,381),(956,381),(955,381),(953,382),(948,382),(945,382),(940,382),(936,382),(933,382),(928,382),(926,382),(923,382),(920,382),(916,381),(915,381),(913,381),(912,381),(909,381),(907,381),(906,381),(904,382),(903,383),(902,384),(902,385),(902,386),(902,388),(902,389),(902,390),(902,396),(900,401),(899,408),(899,412),(899,416),(899,421),(899,424),(899,431),(899,436),(899,439),(899,442),(898,445),(898,447),(898,448),(898,450),(898,451),(899,452),(899,453),(901,455),(902,455),(903,455),(905,455),(908,456),(913,456),(916,458),(923,460),(926,462),(928,463),(934,463),(936,463),(941,462),(944,462),(949,461),(956,458),(959,458),(961,458),(964,457),(965,457),(966,457),(967,456),(967,455),(968,454),(968,452),(969,452),(970,451),(971,450),(971,448),(971,447),(971,446),(971,444),(971,442),(971,439),(971,435),(971,431),(970,426),(970,423),(970,420),(970,418),(970,415),(970,410),(970,407),(970,405),(970,404),(969,404),(968,404),(967,402),(967,400),(965,399),(965,398),(964,398),(963,398),(963,397),(962,396),(960,395),(959,394),(958,394),(957,393),(954,392),(949,390),(944,390),(938,390),(936,390),(933,390),(929,389),(924,389),(916,389),(909,391),(898,393),(894,393),(892,393),(890,393),(888,393),(887,394),(886,394),(886,395),(886,396),(886,397),(886,398),(887,399),(887,400),(889,402),(889,403),(889,405),(889,407),(889,411),(890,413),(891,418),(891,423),(892,427),(892,432),(892,441),(892,445),(892,446),(892,448),(892,450),(892,451),(892,453),(892,454),(892,455),(892,457),(893,459),(893,462),(893,464),(892,467),(891,468),(891,470),(889,471),(888,472),(888,475),(886,477),(886,478),(885,479),(884,481),(883,482),(882,484),(882,485),(881,485),(880,486),(879,488),(878,488),(876,489),(875,489),(874,489),(873,489),(872,489),(872,490),(870,491),(870,492),(869,492),(868,494),(868,495),(868,496),(868,497),(868,498),(868,501),(868,506),(868,509),(867,510),(867,513),(867,514),(867,516),(866,521),(864,528),(863,535),(863,540),(863,542),(863,545),(863,547),(863,549),(863,550),(862,554),(862,557),(861,562),(861,566),(861,568),(861,569),(861,570),(862,570),(863,570),(865,570),(867,570),(874,569),(882,569),(888,569),(894,570),(898,570),(904,569),(909,569),(918,567),(921,567),(925,567),(928,567),(929,566),(932,565),(933,565),(934,565),(934,564),(935,563),(937,562),(938,560),(938,559),(938,557),(938,554),(937,551),(936,541),(938,532),(938,525),(938,519),(938,515),(938,513),(938,512),(938,509),(938,507),(938,504),(938,502),(938,501),(937,501),(936,501),(936,500),(935,499),(935,498),(934,498),(933,498),(932,498),(931,498),(926,496),(921,496),(913,495),(904,495),(899,494),(892,493),(882,493),(878,493),(873,494),(868,497),(864,498),(862,498),(858,498),(853,498),(848,498),(846,498),(844,498),(841,498),(840,498),(839,498),(840,498),(841,498),(842,498),(842,499),(842,500),(842,501),(843,503),(844,504),(845,504),(846,504),(846,505),(846,512),(847,523),(847,545),(847,561),(847,568),(845,573),(842,583),(840,588),(839,596),(838,610),(838,615),(838,618),(838,625),(838,629),(838,631),(838,634),(838,637),(838,640),(838,644),(838,646),(838,647),(838,649),(839,650),(840,652),(841,653),(842,656),(842,657),(842,658),(842,659),(842,660),(842,661),(842,660),(843,658),(844,657),(844,658),(844,661),(843,665),(841,669),(839,673),(836,677),(835,679),(834,680),(832,682),(831,683),(831,685),(831,686),(830,686),(828,686),(827,686),(825,686),(822,684),(819,683),(815,682),(805,680),(802,679),(794,679),(790,678),(789,678),(786,677),(784,677),(784,676),(784,675),(784,674),(783,673),(783,672),(783,671),(783,664),(782,650),(781,644),(780,638),(780,625),(779,617),(779,610),(779,607),(779,605),(779,606),(779,609),(780,611),(781,614),(783,615),(785,616),(793,617),(797,617),(806,617),(815,617),(828,616),(831,615),(835,614),(844,614),(850,613),(854,612),(857,611),(859,611),(859,610),(860,610),(860,611),(861,611),(861,613),(861,614),(861,615),(861,616),(861,617),(861,621),(863,626),(863,630),(863,631),(865,637),(865,641),(865,645),(865,647),(865,649),(865,650),(865,652),(865,654),(864,656),(864,658),(862,661),(862,662),(862,664),(862,665),(861,666),(860,667),(860,668),(859,669),(859,670),(859,673),(858,675),(858,676),(859,676),(861,676),(863,676),(865,676),(866,676),(867,677),(871,679),(873,681),(876,684),(879,686),(883,689),(887,692),(889,694),(890,695),(891,696),(892,698),(892,699),(893,701),(894,704),(895,709),(895,712),(895,715),(895,719),(897,722),(898,724),(898,726),(898,727),(900,728),(901,729),(902,729),(903,731),(905,732),(906,733),(909,734),(914,735),(917,737),(921,739),(925,740),(928,742),(930,744),(931,744),(933,744),(938,744),(940,744),(944,744),(948,744),(950,745),(951,745),(952,745),(953,745),(954,745),(955,745),(958,745),(960,745),(961,745),(964,742),(966,742),(968,742),(970,741),(974,740),(977,740),(978,739),(981,739),(982,738),(983,738),(983,736),(983,733),(982,725),(982,718),(982,712),(982,705),(982,695),(982,689),(982,683),(981,679),(980,675),(980,674),(979,673),(979,671),(978,671),(978,670),(978,668),(977,668),(976,667),(975,667),(973,667),(972,667),(971,667),(970,667),(966,667),(965,666),(962,665),(956,663),(942,661),(930,659),(922,658),(919,658),(915,658),(910,658),(906,658),(899,658),(894,658),(893,658),(891,658),(891,659),(891,660),(893,661),(896,663),(898,665),(899,666),(899,667),(899,668),(900,670),(900,674),(902,679),(902,686),(902,690),(903,696),(905,699),(905,702),(905,706),(905,711),(905,714),(905,716),(905,719),(906,720),(906,721),(907,722),(908,723),(909,723),(910,723),(912,724),(914,726),(915,727),(918,729),(919,731),(921,734),(925,738),(927,741),(929,744),(932,746),(933,748),(935,749),(937,751),(938,752),(940,754),(941,754),(942,754),(943,754),(944,754),(945,754),(945,755),(946,756),(946,758),(947,759),(948,760),(949,762),(949,764),(949,765),(950,769),(951,774),(951,778),(951,781),(951,786),(951,789),(951,791),(951,792),(951,794),(951,795),(951,797),(951,800),(951,804),(951,806),(951,808),(950,811),(949,813),(948,814),(948,817),(947,817),(947,818),(946,818),(945,818),(944,818),(943,819),(942,820),(942,821),(941,823),(941,824),(941,825),(941,826),(941,827),(941,828),(940,829),(939,829),(937,829),(936,829),(934,830),(932,831),(930,831),(928,831),(927,831),(924,831),(923,831),(921,831),(918,831),(915,832),(912,832),(905,833),(898,834),(893,834),(888,834),(884,834),(877,834),(869,832),(862,830),(854,830),(853,830),(852,830),(850,829),(849,828),(849,827),(850,827),(851,827),(853,827),(854,827),(855,826),(856,825),(858,824),(862,815),(862,810),(862,805),(861,794),(861,789),(862,784),(862,779),(862,776),(862,773),(862,769),(862,766),(862,764),(862,762),(862,760),(863,760),(863,761),(865,761),(866,762),(868,762),(870,762),(881,762),(885,762),(891,759),(901,758),(907,758),(911,757),(913,757),(917,756),(919,756),(921,756),(925,755),(932,755),(935,755),(938,755),(939,755),(940,755),(941,755),(942,755),(943,755),(944,755),(944,756),(944,757),(944,759),(944,761),(944,764),(945,767),(945,775),(945,777),(945,780),(945,785),(946,790),(946,797),(946,805),(946,809),(946,811),(946,812),(946,814),(945,816),(943,817),(939,819),(931,819),(926,820),(920,820),(918,820),(912,822),(907,822),(901,822),(891,823),(887,823),(881,823),(875,823),(871,823),(867,823),(864,823),(857,823),(854,823),(851,823),(847,823),(846,823),(844,823),(842,823),(839,822),(838,822),(836,822),(835,822),(834,822),(833,821),(832,821),(832,820),(832,819),(832,818),(832,815),(832,814),(830,812),(829,807),(827,804),(826,798),(822,792),(820,788),(819,785),(817,780),(816,777),(815,775),(815,771),(815,769),(814,765),(814,764),(814,762),(813,761),(813,759),(812,759),(811,758),(810,758),(808,757),(802,756),(798,756),(793,756),(788,756),(784,756),(780,756),(776,756),(766,756),(758,758),(754,759),(751,759),(750,760),(750,762),(750,763),(750,764),(749,764),(748,764),(747,764),(746,764),(746,765),(746,766),(746,768),(746,769),(748,770),(749,772),(750,775),(753,779),(754,783),(756,792),(756,800),(756,808),(756,820),(756,823),(756,824),(756,825),(756,826),(756,828),(756,829),(757,829),(757,830),(757,831),(757,832),(760,832),(761,833),(762,834),(764,835),(768,835),(775,835),(778,834),(783,834),(793,834),(800,835),(805,835),(813,833),(817,832),(821,832),(824,832),(828,832),(829,832),(830,832),(831,831),(832,830),(832,829),(832,828),(832,826),(832,822),(830,820),(829,816),(825,807),(825,801),(825,795),(825,792),(825,791),(823,790),(822,790),(821,790),(819,789),(819,788),(816,786),(813,780),(804,774),(796,768),(781,761),(776,757),(771,753),(763,748),(758,745),(748,743),(743,743),(741,743),(739,743),(738,743),(736,744),(735,744),(733,745),(731,745),(729,745),(728,745),(727,745),(727,744),(727,743),(727,741),(727,740),(727,738),(727,737),(725,735),(723,733),(720,730),(717,728),(713,727),(710,725),(706,722),(704,721),(701,720),(697,718),(693,718),(690,717),(688,716),(687,716),(685,716),(683,716),(682,716),(681,716),(679,716),(678,716),(676,716),(675,716),(674,716),(671,716),(669,716),(668,716),(667,716),(665,716),(665,717),(665,718),(665,719),(665,721),(665,722),(665,723),(665,725),(665,728),(665,730),(665,736),(665,738),(665,742),(665,745),(665,749),(665,754),(666,760),(666,767),(666,773),(666,777),(666,779),(666,782),(666,783),(666,785),(666,786),(667,786),(668,786),(669,786),(673,783),(677,780),(685,780),(693,780),(702,780),(709,780),(713,780),(717,780),(720,779),(728,779),(731,779),(732,779),(733,779),(735,778),(736,777),(737,777),(737,776),(737,774),(736,769),(734,768),(731,758),(729,751),(728,747),(727,742),(726,737),(726,733),(725,729),(724,725),(723,725),(723,723),(723,721),(723,718),(722,712),(721,709),(718,703),(718,699),(717,696),(716,692),(716,689),(716,685),(716,683),(716,678),(716,675),(716,673),(716,670),(715,664),(715,660),(715,657),(713,652),(712,650),(711,646),(710,645),(709,641),(708,639),(708,638),(706,636),(705,633),(705,631),(704,630),(703,627),(703,625),(703,624),(702,623),(702,620),(702,619),(701,617),(701,616),(700,615),(700,614),(700,613),(700,612),(699,611),(698,611),(698,610),(697,610),(696,610),(694,611),(693,612),(691,614),(687,616),(684,616),(683,616),(679,616),(674,618),(672,619),(669,620),(665,622),(662,623),(660,623),(658,623),(654,623),(651,623),(648,623),(646,623),(643,623),(641,623),(640,623),(639,623),(637,623),(636,623),(635,623),(634,623),(633,623),(633,624),(633,625),(633,626),(633,627),(633,630),(633,631),(635,636),(635,640),(636,646),(638,656),(638,668),(639,674),(639,684),(639,686),(639,687),(639,688),(639,690),(639,691),(640,692),(640,693),(641,693),(642,693),(644,693),(645,693),(648,692),(653,691),(659,691),(670,691),(682,691),(694,691),(698,690),(702,690),(706,690),(709,690),(711,690),(713,690),(718,690),(720,689),(723,689),(724,689),(723,689),(722,689),(721,689),(720,690),(718,691),(717,692),(714,693),(708,696),(705,696),(703,696),(701,697),(699,697),(697,697),(692,695),(687,693),(678,692),(673,690),(668,690),(665,690),(663,690),(662,690),(661,690),(659,690),(658,690),(656,690),(655,691),(653,692),(652,692),(651,692),(650,692),(649,692),(647,692),(647,691),(646,690),(644,686),(643,685),(642,684),(641,683),(640,681),(639,681),(638,681),(637,680),(636,680),(634,680),(633,680),(632,679),(630,679),(629,678),(627,678),(626,678),(623,676),(622,675),(620,674),(618,673),(617,672),(616,671),(614,669),(611,668),(609,666),(605,664),(604,664),(602,663),(601,663),(599,663),(598,662),(596,661),(594,661),(593,660),(591,660),(590,659),(588,657),(586,657),(585,656),(583,655),(580,654),(579,654),(578,653),(577,653),(576,653),(576,654),(576,655),(574,656),(574,657),(573,658),(572,658),(570,659),(569,660),(568,660),(566,661),(565,663),(563,664),(562,665),(561,665),(559,666),(558,666),(556,666),(555,666),(554,666),(553,667),(551,668),(550,668),(548,669),(547,669),(545,669),(544,669),(543,669),(540,670),(539,671),(539,672),(539,673),(539,675),(539,676),(543,685),(546,693),(549,703),(552,714),(554,723),(555,728),(557,731),(558,739),(558,743),(558,744),(559,746),(559,747),(560,747),(561,747),(561,746),(562,745),(563,743),(566,742),(571,740),(576,739),(580,739),(583,739),(588,739),(592,739),(597,738),(603,738),(606,738),(609,736),(612,736),(616,732),(617,732),(618,731),(619,731),(621,729),(621,727),(622,726),(622,724),(622,723),(623,718),(624,707),(624,698),(624,691),(626,668),(626,662),(626,658),(626,657),(626,658),(628,661),(628,662),(628,663),(628,665),(628,667),(628,670),(629,673),(629,677),(629,682),(629,683),(629,692),(629,699),(630,705),(631,711),(632,716),(633,724),(633,730),(634,735),(634,742),(634,744),(634,747),(635,750),(635,751),(636,753),(637,756),(637,760),(638,762),(638,766),(639,771),(639,775),(639,778),(640,780),(641,783),(641,784),(641,785),(642,788),(642,790),(642,794),(642,796),(642,800),(642,802),(642,805),(642,807),(642,809),(642,810),(642,812),(641,814),(641,815),(640,817),(639,819),(639,821),(639,823),(639,824),(638,827),(638,828),(638,829),(637,830),(636,832),(635,833),(635,834),(635,836),(635,837),(635,838),(635,839),(634,841),(634,842),(634,843),(634,844),(633,844),(633,845),(632,845),(631,845),(628,845),(625,845),(622,845),(619,845),(615,845),(610,844),(603,844),(593,844),(583,844),(579,844),(569,843),(558,843),(552,843),(550,843),(548,843),(544,844),(543,844),(540,844),(539,844),(539,843),(539,839),(541,836),(541,829),(541,819),(539,796),(540,792),(540,787),(543,778),(544,771),(549,763),(551,758),(552,757),(553,756),(554,756),(555,756),(562,756),(567,756),(579,756),(582,756),(588,756),(598,756),(606,756),(612,756),(618,756),(621,756),(623,756),(626,756),(627,756),(629,756),(630,756),(631,756),(632,756)",
    "file_name": "tmt_A_black.jpg"
  },
  {
    "success": "",
    "trial_type": "psychophysics",
    "trial_index": 2,
    "time_elapsed": 75173,
    "internal_node_id": "0.0-1.0-0.1",
    "rt": 1554.0700000128709,
    "response_type": "mouse",
    "key_press": -1,
    "avg_frame_time": "NaN",
    "position_x": "",
    "position_y": "",
    "click_x": 632,
    "click_y": 735,
    "position": "(632,756)",
    "file_name": "tmt_B_black.jpg"
  }
]