[
  {
    "success": true,
    "trial_type": "fullscreen",
    "trial_index": 0,
    "time_elapsed": 5432,
    "internal_node_id": "0.0-0.0",
    "rt": "",
    "response_type": "",
    "key_press": "",
    "avg_frame_time": "",
    "position_x": "",
    "position_y": "",
    "click_x": "",
    "click_y": "",
    "position": "",
    "file_name": ""
  },
  {
    "success": "",
    "trial_type": "psychophysics",
    "trial_index": 1,
    "time_elapsed": 9309,
    "internal_node_id": "0.0-1.0-0.0",
    "rt": 3865.399999951478,
    "response_type": "mouse",
    "key_press": -1,
    "avg_frame_time": "NaN",
    "position_x": "",
    "position_y": "",
    "click_x": 810,
    "click_y": 486,
    "position": "(810,507)",
    "file_name": "tmt_A_black.jpg"
  },
  {
    "success": "",
    "trial_type": "psychophysics",
    "trial_index": 2,
    "time_elapsed": 13051,
    "internal_node_id": "0.0-1.0-0.1",
    "rt": 3727.0900000003166,
    "response_type": "mouse",
    "key_press": -1,
    "avg_frame_time": "NaN",
    "position_x": "",
    "position_y": "",
    "click_x": 810,
    "click_y": 486,
    "position": "",
    "file_name": "tmt_B_black.jpg"
  },
  {
    "success": "",
    "trial_type": "psychophysics",
    "trial_index": 3,
    "time_elapsed": 18221,
    "internal_node_id": "0.0-1.0-0.2",
    "rt": 5154.660000000149,
    "response_type": "mouse",
    "key_press": -1,
    "avg_frame_time": "NaN",
    "position_x": "",
    "position_y": "",
    "click_x": 810,
    "click_y": 486,
    "position": "",
    "file_name": "tmt_A_black.jpg"
  },
  {
    "success": "",
    "trial_type": "psychophysics",
    "trial_index": 4,
    "time_elapsed": 23155,
    "internal_node_id": "0.0-1.0-0.3",
    "rt": 4919.944999972358,
    "response_type": "mouse",
    "key_press": -1,
    "avg_frame_time": "NaN",
    "position_x": "",
    "position_y": "",
    "click_x": 810,
    "click_y": 486,
    "position": "",
    "file_name": "tmt_B_black.jpg"
  },
  {
    "success": "",
    "trial_type": "psychophysics",
    "trial_index": 5,
    "time_elapsed": 30113,
    "internal_node_id": "0.0-1.0-0.4",
    "rt": 6943.9300000085495,
    "response_type": "mouse",
    "key_press": -1,
    "avg_frame_time": "NaN",
    "position_x": "",
    "position_y": "",
    "click_x": 810,
    "click_y": 486,
    "position": "",
    "file_name": "tmt_A_black.jpg"
  },
  {
    "success": "",
    "trial_type": "psychophysics",
    "trial_index": 6,
    "time_elapsed": 37109,
    "internal_node_id": "0.0-1.0-0.5",
    "rt": 6978.76999998698,
    "response_type": "mouse",
    "key_press": -1,
    "avg_frame_time": "NaN",
    "position_x": "",
    "position_y": "",
    "click_x": 810,
    "click_y": 486,
    "position": "",
    "file_name": "tmt_B_black.jpg"
  },
  {
    "success": "",
    "trial_type": "psychophysics",
    "trial_index": 7,
    "time_elapsed": 45975,
    "internal_node_id": "0.0-1.0-0.6",
    "rt": 8851.160000020172,
    "response_type": "mouse",
    "key_press": -1,
    "avg_frame_time": "NaN",
    "position_x": "",
    "position_y": "",
    "click_x": 810,
    "click_y": 486,
    "position": "",
    "file_name": "tmt_A_black.jpg"
  },
  {
    "success": "",
    "trial_type": "psychophysics",
    "trial_index": 8,
    "time_elapsed": 54921,
    "internal_node_id": "0.0-1.0-0.7",
    "rt": 8931.500000006054,
    "response_type": "mouse",
    "key_press": -1,
    "avg_frame_time": "NaN",
    "position_x": "",
    "position_y": "",
    "click_x": 810,
    "click_y": 486,
    "position": "",
    "file_name": "tmt_B_black.jpg"
  },
  {
    "success": "",
    "trial_type": "psychophysics",
    "trial_index": 9,
    "time_elapsed": 67002,
    "internal_node_id": "0.0-1.0-0.8",
    "rt": 12066.894999996293,
    "response_type": "mouse",
    "key_press": -1,
    "avg_frame_time": "NaN",
    "position_x": "",
    "position_y": "",
    "click_x": 810,
    "click_y": 486,
    "position": "",
    "file_name": "tmt_A_black.jpg"
  },
  {
    "success": "",
    "trial_type": "psychophysics",
    "trial_index": 10,
    "time_elapsed": 79148,
    "internal_node_id": "0.0-1.0-0.9",
    "rt": 12132.030000037048,
    "response_type": "mouse",
    "key_press": -1,
    "avg_frame_time": "NaN",
    "position_x": "",
    "position_y": "",
    "click_x": 810,
    "click_y": 486,
    "position": "",
    "file_name": "tmt_B_black.jpg"
  }
]