[
  {
    "success": true,
    "trial_type": "fullscreen",
    "trial_index": 0,
    "time_elapsed": 3165,
    "internal_node_id": "0.0-0.0",
    "rt": "",
    "response_type": "",
    "key_press": "",
    "avg_frame_time": "",
    "position_x": "",
    "position_y": "",
    "click_x": "",
    "click_y": "",
    "position": "",
    "file_name": ""
  },
  {
    "success": "",
    "trial_type": "psychophysics",
    "trial_index": 1,
    "time_elapsed": 45066,
    "internal_node_id": "0.0-1.0-0.0",
    "rt": 41891.94000000134,
    "response_type": "mouse",
    "key_press": -1,
    "avg_frame_time": "NaN",
    "position_x": "",
    "position_y": "",
    "click_x": 0,
    "click_y": 5,
    "position": "(59,252),(56,242),(51,230),(40,200),(28,179),(21,158),(13,132),(10,122),(7,114),(5,107),(2,98),(0,92),(0,86),(0,81),(0,79),(0,77),(0,74),(0,71),(0,68),(2,66),(3,62),(3,59),(3,57),(3,54),(3,52),(3,49),(3,47),(3,46),(3,45),(3,43),(3,42),(2,42),(2,41),(2,40),(2,39),(2,38),(1,37),(1,36),(0,35),(0,34),(0,33),(0,32),(0,31),(0,30),(0,29),(0,28),(0,27),(0,26),(0,26),(1,26),(2,26),(3,26),(4,26),(5,26),(6,26),(7,26),(8,26),(9,26),(11,26),(12,26),(13,26),(14,26),(16,26),(18,26),(20,26),(22,26),(24,26),(25,26),(26,26),(28,26),(29,26),(30,26),(31,26),(32,26),(33,26),(34,26),(35,26),(36,26),(37,26),(38,26),(38,25),(39,25),(41,25),(42,25),(43,25),(43,24),(44,24),(45,24),(47,24),(48,24),(49,24),(50,24),(51,24),(52,24),(53,24),(54,24),(55,24),(55,25),(56,25),(57,25),(58,26),(59,26),(60,26),(61,26),(62,26),(64,26),(65,26),(66,26),(67,26),(68,26),(71,27),(73,27),(77,27),(78,27),(79,27),(83,27),(84,27),(85,27),(86,27),(87,27),(88,27),(89,27),(90,27),(91,27),(92,27),(94,27),(95,27),(97,27),(100,27),(103,27),(104,27),(107,27),(109,27),(110,27),(112,27),(113,27),(114,27),(115,27),(116,27),(117,27),(119,27),(120,27),(122,26),(125,26),(128,25),(132,25),(135,25),(137,25),(140,25),(145,25),(146,25),(149,25),(154,25),(158,25),(161,25),(166,25),(170,25),(172,25),(173,25),(174,25),(175,25),(176,25),(177,25),(178,25),(179,25),(180,26),(181,27),(183,27),(186,29),(190,31),(192,32),(195,33),(199,33),(201,33),(203,34),(204,35),(205,35),(206,35),(207,35),(208,35),(209,35),(210,35),(211,35),(212,35),(213,34),(215,34),(216,34),(220,34),(223,34),(226,34),(230,34),(235,34),(237,34),(238,34),(242,34),(244,34),(247,34),(250,34),(255,34),(257,34),(260,34),(263,34),(266,34),(268,34),(269,34),(273,33),(274,31),(276,30),(280,28),(282,27),(286,26),(288,25),(292,25),(295,25),(297,24),(300,24),(301,24),(302,24),(303,24),(304,24),(306,24),(308,24),(310,24),(314,26),(317,27),(320,28),(324,28),(325,29),(327,29),(328,29),(330,29),(332,30),(333,30),(334,30),(336,30),(337,30),(338,30),(340,30),(343,30),(344,30),(346,30),(349,30),(352,30),(355,29),(358,29),(359,29),(361,29),(363,29),(365,29),(368,29),(370,29),(373,29),(375,28),(377,27),(384,25),(389,24),(395,24),(398,24),(400,24),(401,24),(402,24),(403,24),(404,24),(405,24),(408,24),(409,24),(411,24),(416,24),(418,24),(422,24),(427,24),(429,24),(433,24),(435,24),(437,23),(439,23),(440,23),(444,23),(447,23),(450,22),(454,22),(460,22),(462,22),(466,22),(468,22),(469,22),(471,22),(473,23),(476,23),(478,23),(479,23),(481,23),(484,23),(486,24),(489,24),(492,24),(493,25),(494,26),(496,26),(499,27),(500,27),(502,27),(504,27),(505,27),(508,28),(510,28),(514,28),(517,28),(519,28),(522,28),(524,28),(526,28),(528,28),(529,28),(530,28),(531,28),(533,28),(535,28),(537,28),(538,28),(541,29),(542,29),(542,28),(547,27),(551,25),(556,25),(559,25),(565,25),(567,25),(569,25),(571,25),(576,25),(582,24),(586,23),(592,23),(596,23),(598,23),(601,23),(603,23),(605,23),(606,23),(611,23),(612,23),(616,23),(618,23),(623,23),(625,23),(627,23),(629,23),(632,23),(633,23),(635,23),(636,23),(640,23),(641,23),(643,23),(647,23),(649,23),(651,23),(655,23),(656,23),(659,23),(661,23),(662,23),(664,24),(666,24),(669,25),(672,25),(676,25),(679,25),(685,26),(687,26),(689,26),(691,26),(693,26),(694,26),(695,26),(697,26),(699,27),(700,27),(703,27),(706,27),(709,27),(712,27),(715,27),(718,27),(720,27),(722,27),(724,27),(725,27),(726,27),(729,27),(730,27),(732,27),(735,27),(738,27),(739,27),(741,27),(743,27),(744,27),(745,27),(748,27),(751,27),(754,27),(756,27),(759,26),(761,26),(762,26),(765,26),(771,26),(774,26),(777,26),(781,26),(783,26),(785,26),(788,26),(789,26),(792,26),(794,26),(799,27),(801,27),(804,27),(807,27),(811,27),(813,28),(814,28),(817,28),(819,28),(821,28),(824,28),(827,28),(831,28),(833,28),(837,28),(839,28),(842,28),(845,28),(846,28),(849,28),(851,28),(853,28),(856,28),(859,28),(861,28),(865,28),(868,28),(870,28),(872,28),(874,28),(876,28),(877,28),(880,28),(881,28),(883,28),(886,28),(891,28),(892,28),(895,28),(898,28),(901,28),(903,28),(905,28),(906,28),(907,28),(909,29),(910,30),(913,31),(915,31),(916,32),(920,32),(921,32),(923,32),(928,32),(932,32),(934,32),(936,32),(940,32),(943,31),(947,31),(950,31),(957,31),(962,31),(964,31),(968,31),(970,31),(973,31),(976,31),(981,31),(984,30),(987,30),(989,30),(993,30),(995,30),(998,30),(1000,31),(1001,31),(1003,31),(1005,31),(1008,31),(1011,31),(1013,31),(1015,31),(1018,31),(1020,31),(1025,31),(1028,31),(1030,31),(1032,31),(1037,31),(1039,30),(1044,29),(1048,29),(1053,28),(1056,28),(1059,28),(1062,28),(1065,28),(1067,28),(1070,28),(1073,28),(1077,28),(1079,28),(1083,28),(1087,28),(1089,28),(1093,28),(1095,28),(1097,29),(1099,29),(1100,29),(1104,29),(1107,29),(1111,29),(1112,29),(1119,30),(1125,30),(1127,30),(1132,30),(1135,30),(1139,30),(1143,30),(1149,30),(1153,30),(1156,30),(1160,30),(1162,30),(1163,30),(1166,30),(1167,30),(1168,30),(1170,30),(1174,29),(1175,29),(1179,29),(1181,29),(1183,29),(1187,29),(1189,29),(1192,29),(1193,29),(1196,29),(1197,29),(1198,29),(1200,29),(1202,28),(1204,28),(1208,28),(1209,28),(1210,28),(1213,28),(1214,28),(1216,28),(1218,28),(1220,28),(1221,28),(1223,28),(1226,28),(1228,28),(1230,28),(1233,28),(1235,29),(1237,29),(1240,29),(1243,29),(1245,29),(1247,29),(1248,30),(1251,30),(1253,30),(1255,30),(1257,30),(1259,30),(1260,30),(1261,30),(1266,28),(1270,27),(1273,27),(1279,26),(1281,26),(1286,26),(1290,26),(1294,26),(1297,26),(1307,27),(1309,27),(1311,27),(1314,27),(1315,27),(1316,27),(1318,27),(1321,27),(1323,27),(1325,27),(1328,28),(1332,29),(1334,29),(1337,30),(1341,30),(1343,30),(1344,30),(1346,30),(1349,29),(1351,28),(1353,28),(1355,28),(1359,27),(1363,26),(1368,26),(1374,26),(1376,26),(1379,26),(1381,26),(1385,25),(1386,25),(1389,25),(1393,25),(1394,25),(1397,25),(1400,25),(1405,25),(1407,25),(1408,25),(1409,25),(1412,25),(1414,25),(1416,25),(1420,25),(1421,25),(1424,25),(1426,25),(1431,25),(1434,25),(1436,25),(1438,25),(1440,25),(1443,25),(1446,25),(1452,25),(1457,25),(1460,25),(1464,25),(1467,25),(1469,25),(1471,25),(1473,25),(1474,26),(1476,26),(1479,27),(1482,27),(1483,27),(1485,27),(1490,30),(1492,30),(1495,30),(1496,30),(1499,31),(1500,31),(1501,31),(1503,31),(1504,31),(1506,31),(1508,31),(1510,31),(1512,31),(1514,31),(1515,31),(1517,31),(1518,31),(1520,31),(1521,31),(1523,31),(1524,31),(1526,30),(1527,30),(1528,30),(1530,29),(1531,29),(1532,28),(1534,28),(1536,27),(1541,27),(1545,27),(1552,27),(1558,27),(1561,27),(1563,27),(1566,27),(1568,27),(1569,27),(1571,27),(1573,28),(1574,28),(1575,28),(1576,28),(1578,28),(1579,28),(1580,28),(1581,28),(1582,28),(1583,28),(1584,28),(1585,28),(1586,28),(1587,28),(1587,29),(1588,29),(1589,29),(1590,29),(1591,29),(1592,29),(1594,29),(1596,29),(1596,30),(1596,31),(1596,32),(1595,33),(1595,35),(1595,36),(1595,37),(1595,39),(1595,42),(1596,45),(1597,47),(1597,50),(1597,55),(1597,56),(1597,61),(1598,64),(1599,66),(1599,69),(1599,72),(1599,76),(1599,77),(1599,80),(1599,86),(1599,90),(1599,93),(1599,99),(1599,102),(1599,106),(1599,109),(1599,112),(1599,115),(1599,119),(1598,125),(1598,129),(1598,133),(1598,137),(1598,143),(1599,147),(1599,150),(1599,156),(1598,160),(1598,163),(1598,167),(1598,170),(1598,172),(1598,174),(1598,176),(1598,179),(1598,181),(1598,182),(1598,185),(1598,188),(1598,190),(1598,192),(1598,195),(1598,198),(1598,200),(1598,205),(1598,207),(1598,210),(1599,212),(1599,215),(1599,217),(1599,220),(1599,225),(1599,227),(1599,230),(1599,232),(1599,236),(1599,240),(1599,242),(1599,244),(1599,246),(1599,248),(1599,252),(1599,255),(1599,258),(1599,261),(1599,263),(1599,267),(1599,270),(1599,272),(1599,275),(1599,277),(1599,278),(1599,279),(1599,284),(1599,286),(1599,289),(1599,292),(1599,295),(1599,297),(1599,298),(1599,301),(1599,303),(1599,305),(1599,308),(1599,311),(1599,314),(1599,317),(1599,322),(1599,325),(1599,328),(1599,331),(1599,335),(1599,338),(1599,341),(1599,345),(1599,346),(1599,348),(1599,349),(1599,352),(1599,356),(1599,360),(1599,362),(1599,363),(1599,364),(1599,368),(1599,370),(1599,372),(1598,377),(1597,382),(1596,386),(1596,390),(1596,393),(1596,396),(1596,399),(1596,404),(1596,410),(1596,414),(1596,418),(1596,423),(1596,427),(1595,428),(1595,431),(1595,437),(1595,441),(1595,446),(1595,451),(1595,456),(1595,459),(1595,462),(1595,466),(1595,468),(1595,472),(1595,474),(1594,480),(1594,482),(1594,486),(1594,489),(1594,491),(1593,493),(1593,495),(1593,496),(1593,498),(1593,500),(1593,502),(1593,505),(1593,508),(1593,510),(1593,514),(1593,517),(1593,519),(1593,521),(1593,524),(1593,525),(1593,527),(1593,530),(1593,531),(1593,533),(1594,537),(1594,542),(1594,545),(1594,550),(1594,552),(1594,557),(1594,559),(1594,562),(1594,564),(1594,567),(1594,571),(1594,578),(1594,581),(1594,586),(1594,590),(1594,595),(1594,600),(1594,605),(1594,611),(1594,615),(1594,618),(1594,622),(1594,626),(1594,628),(1594,630),(1594,634),(1594,636),(1594,639),(1594,643),(1594,648),(1594,652),(1594,655),(1595,659),(1595,661),(1595,664),(1595,667),(1595,669),(1596,674),(1596,676),(1596,680),(1596,683),(1596,686),(1596,689),(1596,693),(1596,694),(1596,696),(1596,699),(1596,701),(1596,702),(1596,703),(1596,704),(1596,706),(1595,708),(1595,714),(1595,719),(1595,726),(1596,728),(1596,731),(1596,734),(1596,736),(1595,739),(1595,741),(1594,743),(1594,747),(1594,752),(1594,755),(1594,760),(1594,762),(1594,765),(1594,767),(1594,769),(1594,772),(1594,775),(1594,780),(1594,783),(1594,787),(1594,790),(1595,795),(1595,796),(1595,799),(1595,802),(1595,803),(1595,804),(1595,806),(1595,810),(1595,812),(1595,813),(1595,815),(1595,818),(1595,819),(1595,820),(1596,822),(1597,825),(1597,826),(1597,828),(1597,829),(1597,831),(1598,832),(1598,833),(1598,835),(1598,836),(1598,837),(1599,839),(1599,840),(1599,842),(1599,843),(1599,844),(1599,846),(1599,847),(1599,848),(1599,849),(1599,850),(1599,851),(1599,852),(1599,853),(1599,854),(1599,855),(1599,856),(1599,857),(1599,858),(1599,859),(1599,860),(1599,861),(1599,862),(1599,863),(1599,864),(1599,865),(1598,866),(1597,866),(1596,866),(1595,866),(1594,866),(1593,866),(1592,866),(1591,866),(1590,866),(1589,866),(1587,866),(1586,866),(1585,866),(1583,866),(1582,866),(1581,866),(1579,866),(1578,866),(1577,866),(1576,866),(1575,866),(1573,866),(1571,866),(1569,866),(1566,866),(1563,867),(1560,867),(1559,867),(1558,867),(1555,867),(1554,868),(1553,868),(1552,868),(1550,868),(1549,868),(1547,868),(1544,868),(1542,868),(1539,868),(1535,868),(1533,868),(1529,868),(1528,868),(1524,868),(1523,868),(1522,868),(1521,868),(1518,868),(1517,868),(1514,868),(1511,868),(1507,868),(1503,868),(1499,868),(1495,868),(1494,868),(1491,868),(1489,868),(1487,868),(1484,868),(1481,868),(1476,868),(1474,868),(1470,868),(1467,868),(1465,868),(1463,868),(1462,868),(1459,867),(1458,867),(1456,866),(1455,866),(1450,866),(1448,866),(1445,866),(1440,866),(1438,866),(1436,866),(1434,866),(1431,866),(1429,866),(1428,866),(1425,866),(1424,866),(1421,866),(1418,866),(1415,866),(1412,866),(1409,866),(1406,866),(1405,866),(1403,866),(1401,866),(1400,866),(1397,866),(1396,866),(1395,866),(1393,865),(1389,865),(1386,865),(1381,865),(1377,865),(1374,865),(1372,865),(1368,865),(1367,865),(1365,865),(1363,865),(1359,865),(1356,865),(1352,865),(1348,865),(1344,866),(1341,866),(1339,866),(1337,866),(1335,866),(1334,866),(1332,866),(1330,866),(1329,866),(1326,867),(1323,867),(1319,868),(1316,868),(1312,868),(1310,868),(1308,868),(1306,868),(1305,870),(1303,870),(1300,871),(1296,871),(1234,868),(1232,867),(1228,864),(1225,861),(1221,859),(1218,857),(1215,856),(1212,854),(1210,854),(1209,854),(1207,854),(1202,854),(1199,854),(1197,854),(1194,854),(1192,854),(1190,854),(1188,854),(1187,854),(1186,856),(1184,856),(1183,856),(1182,856),(1181,857),(1180,858),(1177,859),(1176,859),(1172,859),(1170,860),(1166,860),(1164,861),(1162,862),(1160,862),(1158,862),(1157,862),(1156,862),(1153,862),(1152,862),(1151,862),(1150,862),(1149,863),(1148,863),(1147,864),(1145,865),(1144,865),(1140,865),(1138,865),(1134,865),(1131,865),(1130,865),(1128,866),(1125,866),(1124,866),(1123,866),(1121,866),(1120,866),(1119,866),(1117,866),(1116,867),(1113,867),(1110,867),(1102,868),(1099,868),(1095,868),(1093,868),(1090,868),(1088,868),(1086,868),(1080,868),(1075,867),(1070,867),(1064,868),(1060,868),(1059,869),(1058,869),(1056,869),(1050,869),(1037,870),(1002,871),(1000,871),(997,871),(996,871),(994,871),(991,870),(988,869),(985,869),(980,867),(975,866),(970,866),(964,865),(962,865),(960,864),(957,862),(956,861),(953,860),(950,860),(947,859),(944,859),(943,859),(940,859),(938,859),(936,859),(934,859),(932,860),(931,861),(930,861),(928,862),(926,862),(924,862),(922,864),(917,864),(913,865),(908,865),(905,866),(902,866),(899,866),(897,866),(895,866),(893,866),(891,866),(888,866),(885,866),(883,866),(881,867),(878,867),(876,867),(874,867),(873,867),(871,867),(869,867),(867,867),(865,867),(862,867),(858,867),(853,867),(847,867),(844,867),(841,867),(838,867),(834,867),(833,867),(829,868),(824,869),(820,869),(815,869),(810,869),(808,869),(806,869),(805,869),(802,869),(800,869),(798,869),(794,869),(792,869),(789,869),(787,869),(782,869),(780,869),(779,869),(776,869),(775,869),(774,869),(772,869),(770,868),(768,868),(766,867),(763,867),(758,867),(756,867),(753,867),(750,867),(748,867),(747,867),(745,867),(744,867),(743,867),(742,867),(741,867),(739,865),(738,865),(737,865),(735,865),(734,865),(733,865),(731,865),(730,865),(727,865),(725,865),(724,865),(723,865),(721,865),(720,865),(718,865),(717,865),(715,865),(714,865),(713,865),(712,865),(710,865),(709,865),(708,865),(703,864),(700,864),(697,864),(694,864),(690,864),(689,864),(687,864),(685,864),(683,864),(682,864),(680,862),(677,862),(675,862),(674,862),(673,863),(672,863),(671,863),(669,863),(667,863),(661,864),(657,864),(653,865),(643,865),(637,865),(631,865),(627,865),(623,865),(619,865),(617,865),(612,865),(606,865),(604,865),(600,866),(596,866),(593,866),(591,866),(587,866),(581,866),(576,866),(571,866),(566,867),(560,867),(557,867),(555,867),(551,867),(544,867),(539,867),(535,867),(532,867),(529,867),(527,867),(525,867),(523,867),(520,867),(516,867),(510,867),(506,867),(501,867),(498,867),(494,867),(492,867),(490,867),(488,867),(484,867),(480,867),(476,867),(469,867),(467,867),(464,867),(462,867),(459,866),(456,866),(454,866),(447,865),(442,865),(438,865),(434,865),(430,865),(428,865),(427,865),(425,865),(423,865),(421,865),(420,865),(417,865),(414,865),(412,865),(409,865),(405,864),(401,864),(400,864),(398,864),(397,864),(395,864),(393,864),(392,864),(389,864),(388,864),(386,863),(385,863),(382,862),(381,862),(379,862),(379,861),(378,861),(377,861),(376,861),(375,861),(373,861),(370,861),(367,861),(363,861),(361,861),(359,861),(353,860),(349,860),(345,860),(340,860),(334,860),(332,860),(331,860),(329,860),(328,860),(326,860),(323,860),(320,860),(316,860),(313,860),(308,860),(302,860),(299,860),(297,860),(290,860),(283,860),(274,860),(267,860),(261,860),(259,860),(254,859),(243,859),(236,859),(231,859),(226,859),(221,859),(216,859),(211,859),(203,859),(198,859),(195,859),(192,859),(188,858),(187,858),(183,858),(178,857),(173,857),(170,857),(166,857),(163,857),(162,857),(160,857),(159,857),(157,857),(156,857),(154,857),(150,857),(148,857),(145,857),(143,857),(138,857),(136,857),(134,857),(130,857),(129,857),(128,857),(127,857),(124,857),(123,857),(122,857),(115,857),(111,857),(108,856),(103,855),(99,854),(96,853),(95,853),(90,853),(87,853),(82,853),(77,853),(70,853),(67,853),(66,853),(63,853),(61,853),(60,853),(58,853),(57,854),(55,855),(50,857),(49,858),(47,858),(46,858),(45,858),(43,858),(42,858),(39,858),(36,857),(33,857),(27,857),(25,857),(22,857),(21,857),(20,857),(19,857),(17,857),(16,857),(15,857),(14,857),(13,857),(12,857),(11,857),(10,857),(10,856),(10,855),(10,854),(10,853),(9,852),(9,850),(9,848),(8,847),(7,842),(5,839),(3,835),(2,833),(1,829),(1,825),(0,819),(0,813),(0,806),(0,803),(0,799),(0,795),(0,790),(0,784),(0,777),(0,772),(0,769),(0,767),(0,766),(0,763),(1,760),(1,754),(1,749),(1,745),(1,738),(1,728),(0,721),(0,708),(0,701),(0,694),(0,684),(0,672),(0,665),(0,659),(0,653),(0,644),(0,638),(0,631),(1,625),(1,618),(1,613),(1,607),(2,603),(3,598),(3,593),(3,588),(3,587),(3,584),(3,582),(3,578),(3,576),(3,574),(3,570),(3,568),(2,565),(1,562),(0,558),(0,557),(0,554),(0,549),(0,547),(0,544),(0,541),(0,535),(0,532),(0,527),(0,521),(0,519),(0,512),(0,507),(0,504),(0,499),(0,496),(0,495),(0,494),(0,489),(0,484),(0,479),(0,473),(1,467),(1,457),(1,451),(0,440),(0,431),(0,421),(0,404),(0,394),(0,384),(0,379),(0,372),(0,365),(0,359),(0,354),(0,349),(0,346),(0,340),(0,336),(0,333),(0,327),(0,322),(0,318),(0,314),(0,312),(0,306),(0,302),(0,297),(0,291),(0,286),(1,281),(1,276),(1,270),(0,265),(0,259),(0,252),(0,248),(0,243),(0,239),(0,233),(0,227),(0,224),(0,219),(0,213),(0,209),(0,203),(0,195),(0,190),(0,186),(0,178),(0,174),(0,171),(0,167),(0,166),(0,164),(3,159),(4,153),(4,148),(4,145),(4,137),(3,128),(3,121),(1,110),(0,101),(0,94),(0,83),(0,81),(0,80),(0,76),(0,73),(0,71),(0,69),(0,67),(0,64),(0,61),(0,54),(0,50),(0,47),(1,43),(1,41),(1,39),(1,38),(1,37),(1,36),(1,35),(1,34),(1,33),(1,31),(1,30),(1,29),(0,29),(0,28),(0,27),(0,26),(0,25),(0,24),(0,25),(0,26)",
    "file_name": "tmt_A_black.jpg"
  },
  {
    "success": "",
    "trial_type": "psychophysics",
    "trial_index": 2,
    "time_elapsed": 73830,
    "internal_node_id": "0.0-1.0-0.1",
    "rt": 28748.064999992494,
    "response_type": "mouse",
    "key_press": -1,
    "avg_frame_time": "NaN",
    "position_x": "",
    "position_y": "",
    "click_x": 0,
    "click_y": 4,
    "position": "(0,27),(1,27),(2,27),(3,27),(4,27),(5,27),(3,27),(4,27),(6,27),(9,26),(12,26),(15,26),(17,26),(22,25),(25,25),(28,25),(31,25),(34,25),(35,25),(36,25),(37,25),(39,25),(40,25),(41,25),(42,25),(44,25),(46,25),(50,25),(53,25),(56,25),(58,25),(61,25),(62,25),(62,26),(64,26),(65,26),(66,26),(68,26),(71,26),(73,26),(75,26),(79,26),(82,26),(83,26),(85,26),(87,25),(91,25),(94,25),(96,25),(97,25),(99,25),(101,25),(103,25),(105,25),(107,25),(109,26),(110,26),(112,26),(113,26),(116,26),(118,26),(120,26),(122,26),(124,27),(127,27),(129,27),(131,27),(135,28),(136,28),(138,28),(141,29),(144,29),(147,29),(150,29),(157,29),(162,29),(165,29),(169,30),(171,30),(172,30),(174,30),(175,31),(178,31),(181,31),(183,31),(189,31),(194,31),(196,31),(198,31),(201,31),(202,31),(204,30),(206,30),(208,30),(210,30),(213,30),(219,30),(222,30),(226,29),(230,28),(233,27),(234,27),(236,27),(239,27),(241,27),(243,27),(248,27),(253,27),(257,26),(261,25),(266,25),(267,25),(269,25),(273,25),(275,25),(278,25),(282,25),(288,25),(292,25),(294,25),(296,25),(300,25),(301,25),(303,25),(305,26),(309,26),(314,26),(317,26),(322,26),(326,26),(329,27),(331,27),(334,27),(335,27),(337,27),(342,27),(346,27),(348,27),(352,27),(354,27),(357,26),(359,26),(361,26),(362,26),(365,26),(367,26),(368,26),(370,26),(374,26),(380,26),(386,26),(390,27),(395,27),(399,28),(400,28),(406,29),(408,29),(411,29),(413,30),(416,30),(419,30),(420,30),(423,30),(424,30),(425,30),(426,30),(427,30),(428,30),(429,30),(432,30),(433,30),(434,30),(436,30),(438,30),(441,30),(446,30),(450,30),(452,30),(454,30),(457,30),(459,30),(461,30),(464,30),(465,30),(467,30),(468,30),(471,30),(473,30),(477,30),(481,29),(483,29),(485,29),(486,29),(489,29),(490,29),(492,29),(495,29),(498,29),(500,29),(503,29),(504,29),(506,29),(507,29),(508,29),(513,23),(514,23),(514,22),(516,22),(520,22),(528,22),(533,22),(537,22),(539,22),(541,22),(542,22),(543,22),(544,22),(545,22),(547,22),(548,22),(550,22),(553,22),(555,22),(561,22),(566,22),(568,22),(570,22),(573,22),(576,22),(578,22),(581,23),(588,23),(591,23),(596,23),(603,23),(605,23),(608,23),(610,23),(613,23),(615,23),(620,23),(623,23),(630,24),(633,24),(637,25),(641,25),(643,25),(644,25),(648,25),(649,25),(654,25),(656,25),(663,25),(665,25),(668,25),(670,24),(672,24),(674,24),(675,24),(678,24),(681,24),(683,24),(688,24),(695,24),(698,24),(702,25),(705,25),(708,25),(711,26),(713,26),(719,26),(723,27),(727,28),(732,28),(737,28),(740,28),(742,28),(746,28),(750,28),(753,27),(758,26),(765,26),(767,26),(770,25),(773,25),(775,25),(778,25),(781,25),(786,24),(791,24),(795,24),(799,24),(806,24),(809,25),(814,25),(819,25),(823,26),(826,26),(831,27),(835,27),(837,27),(839,27),(841,27),(843,27),(845,27),(848,27),(853,27),(855,26),(859,26),(863,26),(870,27),(874,27),(875,27),(881,27),(883,27),(887,27),(892,27),(898,27),(901,27),(903,27),(907,27),(909,28),(911,28),(914,29),(918,29),(921,30),(923,31),(928,31),(931,31),(933,31),(936,31),(937,31),(940,31),(942,31),(944,31),(947,31),(948,31),(953,30),(956,30),(960,29),(963,29),(969,29),(970,28),(978,28),(985,28),(994,32),(1001,33),(1007,34),(1012,34),(1017,35),(1026,37),(1030,39),(1036,40),(1040,41),(1044,41),(1047,41),(1051,41),(1057,41),(1061,41),(1065,41),(1069,41),(1072,41),(1074,40),(1077,40),(1083,38),(1087,37),(1091,36),(1097,36),(1105,36),(1110,36),(1113,36),(1122,36),(1128,36),(1134,36),(1140,36),(1146,35),(1150,35),(1154,34),(1159,33),(1168,33),(1175,31),(1180,30),(1186,27),(1190,25),(1196,23),(1202,22),(1324,21),(1327,21),(1331,22),(1335,22),(1338,22),(1342,23),(1346,24),(1350,24),(1351,24),(1354,24),(1357,24),(1359,25),(1362,25),(1366,25),(1369,25),(1372,25),(1377,25),(1378,25),(1380,25),(1381,25),(1383,25),(1384,25),(1385,25),(1386,25),(1388,25),(1389,25),(1390,26),(1392,26),(1393,26),(1394,26),(1395,26),(1396,26),(1399,26),(1402,27),(1405,27),(1406,29),(1408,29),(1409,29),(1412,29),(1415,30),(1418,31),(1423,33),(1442,35),(1445,38),(1454,38),(1456,37),(1457,37),(1458,37),(1460,29),(1460,28),(1460,27),(1461,26),(1464,25),(1467,23),(1477,22),(1484,22),(1488,21),(1492,21),(1493,21),(1495,21),(1496,21),(1497,21),(1500,21),(1502,21),(1504,21),(1508,23),(1510,23),(1513,23),(1515,23),(1519,23),(1521,23),(1523,24),(1525,24),(1527,24),(1528,25),(1530,26),(1532,26),(1533,26),(1534,26),(1538,26),(1540,26),(1542,26),(1544,26),(1548,26),(1550,26),(1552,26),(1554,26),(1556,26),(1558,26),(1560,26),(1563,26),(1564,26),(1567,26),(1570,26),(1572,25),(1573,25),(1575,25),(1578,25),(1580,24),(1581,24),(1582,24),(1583,24),(1584,24),(1585,24),(1587,25),(1588,26),(1588,27),(1589,28),(1589,29),(1589,30),(1589,31),(1589,32),(1590,32),(1591,34),(1593,38),(1595,39),(1596,42),(1598,44),(1599,46),(1599,48),(1599,49),(1599,51),(1599,54),(1599,55),(1599,58),(1599,62),(1599,65),(1599,68),(1599,74),(1599,76),(1599,80),(1599,82),(1599,87),(1599,91),(1599,95),(1599,99),(1599,107),(1599,111),(1599,114),(1599,118),(1599,120),(1599,124),(1599,130),(1599,134),(1599,139),(1599,143),(1599,147),(1599,151),(1599,154),(1599,158),(1599,163),(1599,168),(1599,173),(1599,181),(1599,184),(1599,189),(1599,193),(1599,205),(1599,213),(1599,217),(1599,224),(1599,229),(1599,233),(1599,238),(1599,246),(1599,253),(1599,255),(1599,269),(1598,277),(1598,287),(1597,298),(1597,307),(1597,316),(1597,323),(1597,331),(1597,342),(1597,349),(1597,359),(1596,363),(1595,372),(1595,379),(1593,385),(1593,390),(1593,394),(1593,399),(1593,403),(1593,410),(1592,422),(1590,428),(1590,433),(1590,437),(1590,449),(1590,457),(1591,464),(1593,472),(1593,477),(1594,484),(1595,488),(1595,500),(1595,504),(1595,509),(1595,515),(1596,520),(1596,525),(1596,532),(1596,539),(1596,544),(1596,547),(1596,552),(1597,556),(1597,561),(1597,568),(1597,576),(1597,580),(1597,583),(1597,585),(1597,590),(1597,593),(1597,598),(1597,603),(1597,611),(1597,613),(1597,615),(1597,620),(1597,623),(1597,627),(1597,632),(1597,641),(1597,646),(1597,651),(1597,657),(1597,660),(1597,673),(1597,674),(1597,675),(1596,676),(1596,686),(1596,697),(1596,706),(1596,713),(1596,720),(1596,723),(1596,727),(1596,735),(1596,742),(1595,749),(1595,753),(1595,756),(1595,759),(1595,761),(1595,765),(1595,768),(1595,772),(1595,776),(1595,782),(1594,785),(1594,787),(1594,790),(1594,792),(1594,794),(1594,796),(1594,800),(1594,803),(1594,805),(1594,807),(1594,810),(1594,812),(1594,813),(1594,814),(1594,816),(1594,817),(1594,818),(1594,820),(1594,821),(1594,822),(1594,823),(1594,825),(1594,827),(1594,828),(1594,829),(1595,830),(1595,831),(1595,833),(1596,835),(1596,837),(1596,839),(1597,841),(1597,842),(1597,844),(1597,846),(1597,847),(1597,848),(1597,849),(1597,851),(1597,852),(1597,853),(1597,854),(1597,855),(1596,855),(1595,855),(1594,856),(1591,858),(1590,859),(1586,860),(1582,861),(1579,863),(1577,863),(1576,863),(1575,863),(1573,863),(1572,864),(1571,864),(1570,864),(1569,864),(1568,864),(1567,864),(1565,864),(1564,864),(1563,864),(1561,864),(1556,864),(1551,864),(1546,864),(1542,864),(1538,864),(1536,864),(1533,864),(1526,862),(1522,862),(1515,862),(1508,862),(1504,862),(1502,862),(1499,862),(1494,861),(1487,861),(1479,861),(1474,861),(1468,861),(1465,861),(1461,861),(1454,861),(1447,861),(1442,861),(1435,861),(1431,861),(1428,861),(1425,861),(1418,861),(1411,861),(1406,861),(1401,863),(1395,863),(1392,863),(1387,863),(1380,863),(1368,863),(1363,863),(1359,863),(1353,863),(1346,863),(1338,863),(1330,864),(1323,864),(1318,864),(1314,865),(1307,865),(1298,865),(1290,866),(1285,866),(1279,867),(1274,868),(1267,868),(1254,869),(1249,870),(1244,871),(1144,869),(1136,867),(1129,865),(1124,863),(1119,860),(1110,858),(1101,857),(1094,857),(1090,857),(1086,856),(1079,855),(1074,855),(1070,854),(1063,853),(1059,853),(1057,853),(1055,853),(1053,853),(1052,853),(1051,853),(1049,853),(1046,854),(1042,854),(1040,855),(1034,855),(1032,856),(1029,856),(1026,856),(1024,856),(1023,856),(1020,856),(1017,856),(1014,856),(1010,856),(1004,856),(1000,856),(997,857),(995,857),(992,857),(991,857),(990,857),(988,857),(986,857),(984,857),(978,856),(974,856),(971,856),(966,856),(963,856),(958,856),(956,856),(952,856),(945,856),(938,857),(937,857),(938,863),(937,863),(930,863),(922,865),(917,865),(911,866),(905,867),(896,868),(887,868),(876,870),(872,869),(862,869),(846,870),(839,871),(834,871),(830,871),(817,871),(810,871),(780,871),(776,871),(773,870),(769,869),(768,868),(765,868),(764,868),(756,866),(751,866),(744,865),(740,864),(737,864),(735,864),(732,864),(730,864),(728,864),(725,864),(721,865),(720,865),(716,865),(713,866),(711,866),(709,866),(708,866),(705,867),(703,867),(702,867),(701,867),(698,867),(695,868),(691,870),(685,870),(681,870),(626,871),(621,871),(615,871),(608,871),(600,869),(597,869),(594,868),(588,866),(586,866),(581,864),(579,864),(575,862),(573,862),(570,862),(568,862),(567,862),(565,862),(564,862),(562,862),(561,862),(559,862),(556,862),(552,862),(549,862),(545,862),(541,861),(538,861),(537,861),(536,861),(531,861),(529,861),(527,862),(525,862),(520,863),(516,863),(511,863),(509,862),(507,862),(505,862),(504,862),(502,862),(499,862),(498,862),(494,863),(491,864),(490,864),(489,864),(489,870),(489,871),(477,871),(472,870),(464,867),(454,864),(450,863),(446,860),(437,859),(428,859),(420,859),(415,859),(409,859),(402,858),(398,858),(393,858),(385,858),(384,858),(381,858),(379,857),(377,857),(374,856),(372,856),(367,856),(363,856),(359,856),(355,856),(352,856),(349,856),(347,856),(342,856),(338,856),(333,856),(325,856),(319,857),(315,857),(314,857),(310,857),(307,857),(303,857),(298,857),(293,857),(288,857),(284,857),(281,857),(277,858),(275,858),(270,859),(267,859),(260,859),(256,859),(251,859),(248,859),(247,859),(245,861),(242,861),(240,861),(236,861),(232,861),(226,861),(217,861),(213,861),(208,861),(203,863),(198,864),(193,864),(185,864),(182,864),(178,864),(175,865),(172,865),(170,865),(169,865),(165,865),(163,865),(162,865),(159,865),(157,865),(156,865),(154,865),(147,863),(142,862),(137,861),(133,861),(129,859),(124,856),(116,852),(110,849),(104,849),(99,848),(94,845),(91,844),(88,844),(82,843),(78,843),(75,843),(71,843),(69,843),(67,843),(65,843),(62,844),(59,844),(57,844),(55,844),(49,846),(45,846),(42,847),(38,847),(34,849),(32,849),(29,850),(26,850),(25,851),(23,851),(21,852),(20,852),(18,852),(17,852),(16,852),(13,852),(12,852),(11,852),(9,852),(8,852),(7,851),(7,850),(6,850),(6,848),(5,847),(5,845),(5,843),(5,837),(5,834),(5,832),(5,830),(5,826),(5,822),(5,816),(5,810),(5,801),(5,793),(6,783),(7,775),(8,764),(8,758),(8,753),(8,749),(8,745),(8,743),(8,740),(8,734),(8,730),(7,727),(7,724),(7,722),(4,710),(0,695),(0,683),(0,667),(0,660),(0,652),(0,641),(0,634),(0,627),(0,618),(0,606),(0,599),(0,593),(0,587),(0,580),(0,573),(0,566),(0,556),(0,551),(0,544),(0,537),(0,526),(0,520),(0,515),(0,509),(0,500),(0,493),(0,489),(0,478),(0,473),(0,468),(0,461),(0,452),(0,444),(0,437),(0,427),(0,420),(0,414),(0,409),(0,397),(0,391),(0,386),(0,379),(0,374),(0,370),(0,368),(0,363),(0,350),(0,342),(1,333),(1,311),(0,294),(0,280),(0,265),(0,250),(0,242),(0,235),(0,222),(0,214),(0,208),(0,201),(0,192),(0,187),(0,184),(0,178),(0,174),(0,170),(0,166),(0,160),(0,157),(0,153),(0,150),(0,144),(0,140),(0,137),(0,131),(0,126),(0,122),(0,117),(0,111),(0,107),(0,104),(0,101),(0,99),(0,96),(0,94),(0,91),(0,90),(0,89),(0,88),(0,84),(0,82),(0,80),(0,76),(0,68),(0,61),(0,47),(0,41),(0,37),(0,34),(0,31),(0,30),(0,28),(0,27),(0,25)",
    "file_name": "tmt_B_black.jpg"
  }
]